Accel_X,Accel_Y,Accel_Z,GYRO_X,GYRO_Y,GYRO_Z,Magn_X,Magn_Y,Magn_Z
-0.56298828125,-0.145751953125,0.871337890625,-1.15203857421875,1.94549560546875,-0.2288818359375,65.496826171875,56.82373046875,3.5888671875
-0.574951171875,-0.145263671875,0.846435546875,-0.93841552734375,2.2125244140625,-0.55694580078125,65.3472900390625,56.9732666015625,4.9346923828125
-0.573974609375,-0.149658203125,0.856201171875,-0.93841552734375,0.06866455078125,-0.3509521484375,66.9921875,55.62744140625,2.691650390625
-0.590576171875,-0.155517578125,0.857421875,-0.83160400390625,2.1514892578125,-0.34332275390625,64.7491455078125,55.7769775390625,4.9346923828125
-0.574951171875,-0.15185546875,0.856689453125,-0.70953369140625,2.22015380859375,-0.41961669921875,66.5435791015625,56.6741943359375,2.5421142578125
-0.5771484375,-0.14794921875,0.859130859375,-0.823974609375,2.22015380859375,-0.4119873046875,65.19775390625,55.62744140625,4.486083984375
-0.575439453125,-0.1533203125,0.86083984375,-0.63323974609375,1.922607421875,-0.19073486328125,65.7958984375,55.62744140625,5.084228515625
-0.56298828125,-0.156005859375,0.86376953125,-0.52642822265625,2.43377685546875,-0.3509521484375,64.898681640625,55.328369140625,4.78515625
-0.5791015625,-0.1484375,0.862060546875,-0.80108642578125,2.6092529296875,-0.54168701171875,66.094970703125,56.2255859375,4.18701171875
-0.57958984375,-0.15478515625,0.860595703125,-0.40435791015625,2.58636474609375,-0.26702880859375,65.19775390625,55.62744140625,4.18701171875
-0.57568359375,-0.15380859375,0.84619140625,-0.4119873046875,2.4261474609375,-0.23651123046875,65.3472900390625,55.7769775390625,3.7384033203125
-0.572998046875,-0.15087890625,0.859130859375,-0.26702880859375,2.31170654296875,-0.0762939453125,66.8426513671875,56.6741943359375,4.6356201171875
-0.57568359375,-0.153076171875,0.86083984375,-0.11444091796875,2.0599365234375,-0.14495849609375,66.39404296875,56.524658203125,4.18701171875
-0.563720703125,-0.15576171875,0.861328125,-0.23651123046875,2.3193359375,1.922607421875,66.39404296875,56.2255859375,4.18701171875
-0.577880859375,-0.147705078125,0.85888671875,-0.1068115234375,2.55584716796875,0.08392333984375,66.094970703125,55.62744140625,3.5888671875
-0.575927734375,-0.14990234375,0.86181640625,-0.32806396484375,2.3040771484375,-0.48065185546875,65.6463623046875,56.0760498046875,4.0374755859375
-0.577392578125,-0.14990234375,0.862060546875,-0.25177001953125,2.4261474609375,-0.335693359375,65.9454345703125,56.3751220703125,5.5328369140625
-0.58154296875,-0.147216796875,0.847412109375,-0.396728515625,2.28118896484375,-0.48828125,65.496826171875,56.524658203125,5.084228515625
-0.578125,-0.150390625,0.856689453125,-0.37384033203125,2.2125244140625,-0.335693359375,65.496826171875,55.62744140625,4.486083984375
-0.578369140625,-0.147705078125,0.854248046875,-0.58746337890625,0.14495849609375,-0.35858154296875,65.496826171875,55.926513671875,4.78515625
-0.56298828125,-0.154052734375,0.86279296875,-0.28228759765625,1.9073486328125,-0.4425048828125,65.6463623046875,56.9732666015625,3.1402587890625
-0.577880859375,-0.1533203125,0.85546875,-0.54168701171875,1.7547607421875,-0.396728515625,65.7958984375,56.524658203125,4.18701171875
-0.578125,-0.151611328125,0.85693359375,-0.4119873046875,1.4801025390625,-0.1983642578125,65.19775390625,55.62744140625,5.084228515625
-0.575927734375,-0.15185546875,0.857421875,-0.29754638671875,1.82342529296875,-0.2288818359375,66.9921875,56.524658203125,4.78515625
-0.578857421875,-0.150634765625,0.848388671875,-0.35858154296875,1.861572265625,0.05340576171875,65.6463623046875,56.3751220703125,6.4300537109375
-0.56494140625,-0.146728515625,0.856201171875,-0.45013427734375,3.7384033203125,-0.02288818359375,66.094970703125,55.62744140625,4.18701171875
-0.5751953125,-0.153564453125,0.8447265625,-0.64849853515625,2.66265869140625,1.70135498046875,65.496826171875,57.421875,3.5888671875
-0.57421875,-0.14990234375,0.858154296875,-0.64849853515625,2.3040771484375,1.73187255859375,65.9454345703125,55.7769775390625,4.6356201171875
-0.583740234375,-0.1533203125,0.856201171875,-0.396728515625,2.00653076171875,0.0152587890625,66.2445068359375,56.3751220703125,4.0374755859375
-0.59375,-0.15234375,0.861328125,-0.6103515625,2.227783203125,-1.62506103515625,66.2445068359375,56.3751220703125,4.3365478515625
-0.57568359375,-0.152587890625,0.8603515625,-0.335693359375,2.34222412109375,1.89208984375,66.5435791015625,56.6741943359375,5.2337646484375
-0.578369140625,-0.15576171875,0.860595703125,-0.18310546875,2.38037109375,0.335693359375,65.7958984375,56.2255859375,5.084228515625
-0.5654296875,-0.1513671875,0.8447265625,-0.20599365234375,2.0751953125,0.29754638671875,66.39404296875,56.524658203125,3.887939453125
-0.563232421875,-0.150390625,0.874267578125,-0.11444091796875,2.32696533203125,-1.89971923828125,65.7958984375,55.328369140625,5.084228515625
-0.582763671875,-0.14697265625,0.864013671875,-0.51116943359375,2.37274169921875,-0.091552734375,65.7958984375,56.82373046875,3.887939453125
-0.57861328125,-0.150146484375,0.862060546875,-0.37384033203125,2.197265625,1.93023681640625,66.094970703125,56.82373046875,4.18701171875
-0.576171875,-0.150634765625,0.8623046875,-0.11444091796875,2.410888671875,-1.86920166015625,66.693115234375,56.82373046875,4.486083984375
-0.593505859375,-0.15234375,0.85107421875,-0.3204345703125,2.4566650390625,-0.091552734375,66.693115234375,56.82373046875,4.486083984375
-0.575927734375,-0.150146484375,0.855712890625,-0.22125244140625,1.9989013671875,-0.030517578125,66.693115234375,56.82373046875,4.486083984375
-0.580078125,-0.14892578125,0.87158203125,-0.06866455078125,2.1820068359375,-0.152587890625,66.693115234375,56.82373046875,4.486083984375
-0.574462890625,-0.148681640625,0.845458984375,-0.06103515625,0.03814697265625,1.94549560546875,65.3472900390625,56.9732666015625,4.3365478515625
-0.577392578125,-0.147216796875,0.8564453125,-0.25177001953125,2.12860107421875,1.9073486328125,66.39404296875,56.82373046875,4.18701171875
-0.580810546875,-0.145751953125,0.85693359375,-0.18310546875,0.030517578125,1.94549560546875,66.2445068359375,55.7769775390625,3.7384033203125
-0.56396484375,-0.15380859375,0.85888671875,-0.46539306640625,0.0457763671875,-1.82342529296875,66.2445068359375,55.7769775390625,3.7384033203125
-0.57763671875,-0.1455078125,0.854736328125,-0.77056884765625,2.3193359375,-0.1220703125,66.5435791015625,56.6741943359375,4.3365478515625
-0.57568359375,-0.147705078125,0.859375,-0.732421875,2.3651123046875,-0.20599365234375,65.19775390625,55.926513671875,4.18701171875
-0.562744140625,-0.147705078125,0.857177734375,-0.92315673828125,2.3956298828125,-0.4425048828125,64.7491455078125,55.4779052734375,6.1309814453125
-0.57763671875,-0.155517578125,0.860595703125,-1.21307373046875,2.70843505859375,-0.3814697265625,65.6463623046875,57.2723388671875,3.4393310546875
-0.58203125,-0.1591796875,0.84375,-0.96893310546875,2.5787353515625,-0.43487548828125,65.0482177734375,57.2723388671875,4.3365478515625
-0.57568359375,-0.14111328125,0.858154296875,-0.9002685546875,2.5634765625,-0.84686279296875,65.7958984375,56.2255859375,5.084228515625
-0.5634765625,-0.154541015625,0.85791015625,-0.8544921875,2.38037109375,-0.20599365234375,65.496826171875,55.926513671875,5.38330078125
-0.581787109375,-0.150634765625,0.872802734375,-0.63323974609375,2.35748291015625,-0.213623046875,65.0482177734375,57.2723388671875,4.6356201171875
-0.57958984375,-0.160888671875,0.85546875,-0.46539306640625,2.5482177734375,-0.091552734375,65.6463623046875,56.6741943359375,4.3365478515625
-0.580322265625,-0.154052734375,0.856201171875,-0.2593994140625,2.3956298828125,-1.77764892578125,66.9921875,56.2255859375,4.18701171875
-0.578857421875,-0.152099609375,0.857666015625,-0.1983642578125,2.4566650390625,-0.213623046875,64.898681640625,57.122802734375,4.78515625
-0.57958984375,-0.152099609375,0.854736328125,-0.29754638671875,2.7313232421875,0.1068115234375,65.496826171875,56.524658203125,4.78515625
-0.576416015625,-0.150634765625,0.87451171875,-0.1220703125,2.3956298828125,-0.06866455078125,66.5435791015625,56.6741943359375,4.0374755859375
-0.59375,-0.148681640625,0.84423828125,-0.18310546875,2.40325927734375,0.0152587890625,64.300537109375,56.524658203125,4.78515625
-0.564208984375,-0.14990234375,0.857177734375,-0.457763671875,2.13623046875,-0.08392333984375,65.3472900390625,56.0760498046875,3.7384033203125
-0.581298828125,-0.150390625,0.855712890625,-0.244140625,1.96075439453125,-0.22125244140625,65.19775390625,56.524658203125,4.18701171875
-0.578369140625,-0.1552734375,0.8583984375,-0.30517578125,1.97601318359375,-0.22125244140625,65.3472900390625,55.4779052734375,4.0374755859375
-0.581298828125,-0.14794921875,0.87353515625,-0.9307861328125,2.349853515625,-0.3204345703125,65.9454345703125,56.9732666015625,3.7384033203125
-0.564208984375,-0.1708984375,0.85302734375,-0.69427490234375,2.0599365234375,-0.2288818359375,66.693115234375,55.62744140625,4.78515625
-0.578369140625,-0.155517578125,0.858642578125,-0.72479248046875,2.12860107421875,0.14495849609375,65.9454345703125,55.7769775390625,4.9346923828125
-0.579345703125,-0.150146484375,0.851806640625,-0.57220458984375,1.8463134765625,-0.17547607421875,65.0482177734375,56.3751220703125,3.7384033203125
-0.582763671875,-0.150634765625,0.8603515625,-0.57220458984375,3.88336181640625,-1.8157958984375,66.5435791015625,54.8797607421875,5.5328369140625
-0.5830078125,-0.152587890625,0.8603515625,-0.57220458984375,2.06756591796875,-0.091552734375,66.094970703125,55.62744140625,5.38330078125
-0.58349609375,-0.148193359375,0.87255859375,-0.51116943359375,3.8299560546875,-0.25177001953125,65.6463623046875,57.5714111328125,4.6356201171875
-0.581298828125,-0.151611328125,0.849853515625,-0.60272216796875,2.11334228515625,-0.0762939453125,65.3472900390625,56.9732666015625,4.3365478515625
-0.579345703125,-0.152099609375,0.859375,-0.78582763671875,0.06866455078125,1.89971923828125,65.9454345703125,57.2723388671875,4.6356201171875
-0.59375,-0.15234375,0.84765625,-0.518798828125,1.99127197265625,-0.34332275390625,65.496826171875,56.82373046875,3.887939453125
-0.57568359375,-0.1533203125,0.86083984375,-0.7781982421875,2.105712890625,-1.9378662109375,65.19775390625,55.328369140625,4.78515625
-0.578857421875,-0.169677734375,0.845703125,-0.4730224609375,1.678466796875,-0.7781982421875,66.094970703125,56.524658203125,4.78515625
-0.56689453125,-0.1591796875,0.86279296875,-0.518798828125,1.953125,-0.2593994140625,65.9454345703125,55.1788330078125,5.2337646484375
-0.579345703125,-0.153076171875,0.87353515625,-0.37384033203125,0.08392333984375,-0.28228759765625,66.39404296875,55.926513671875,4.78515625
-0.57861328125,-0.154296875,0.865478515625,-0.25177001953125,2.14385986328125,-0.244140625,66.39404296875,55.62744140625,4.78515625
-0.580322265625,-0.14794921875,0.8740234375,-0.16021728515625,2.1209716796875,-0.2593994140625,64.4500732421875,56.3751220703125,4.9346923828125
-0.580322265625,-0.154296875,0.851806640625,-0.26702880859375,2.34222412109375,-0.16021728515625,65.7958984375,55.328369140625,4.486083984375
-0.57861328125,-0.14990234375,0.857666015625,-0.152587890625,2.13623046875,-0.3204345703125,66.2445068359375,56.0760498046875,3.1402587890625
-0.563720703125,-0.14306640625,0.859375,-0.3662109375,1.9683837890625,-0.17547607421875,66.39404296875,55.62744140625,3.289794921875
-0.580322265625,-0.15283203125,0.857177734375,-0.29754638671875,2.2735595703125,-0.08392333984375,66.2445068359375,55.4779052734375,4.3365478515625
-0.57958984375,-0.15478515625,0.86962890625,-0.2593994140625,2.23541259765625,-0.18310546875,65.496826171875,55.926513671875,4.18701171875
-0.5810546875,-0.155029296875,0.8603515625,-0.31280517578125,2.17437744140625,1.80816650390625,65.3472900390625,56.0760498046875,3.1402587890625
-0.57666015625,-0.15283203125,0.85791015625,-0.0152587890625,1.93023681640625,-1.86920166015625,66.39404296875,55.029296875,3.887939453125
-0.59326171875,-0.153076171875,0.857177734375,-0.05340576171875,1.46484375,-1.8768310546875,66.8426513671875,56.3751220703125,4.9346923828125
-0.582763671875,-0.153564453125,0.87353515625,-0.23651123046875,1.50299072265625,-0.20599365234375,65.6463623046875,55.7769775390625,3.4393310546875
-0.59375,-0.154541015625,0.85693359375,-0.03814697265625,1.9378662109375,-0.28228759765625,65.6463623046875,56.0760498046875,4.3365478515625
-0.57763671875,-0.151611328125,0.8662109375,-0.06103515625,3.875732421875,-0.46539306640625,65.19775390625,56.2255859375,5.38330078125
-0.57861328125,-0.15478515625,0.858642578125,1.9073486328125,2.25830078125,-0.26702880859375,65.6463623046875,55.4779052734375,4.9346923828125
-0.58203125,-0.14208984375,0.856201171875,0.05340576171875,2.17437744140625,0.02288818359375,67.291259765625,56.524658203125,4.78515625
-0.58154296875,-0.1708984375,0.86328125,-1.861572265625,2.3345947265625,-0.030517578125,65.19775390625,56.82373046875,3.5888671875
-0.583984375,-0.149169921875,0.87353515625,-0.1678466796875,1.6326904296875,-0.11444091796875,66.39404296875,55.926513671875,4.486083984375
-0.565185546875,-0.151611328125,0.8642578125,-0.244140625,2.31170654296875,-0.152587890625,65.9454345703125,56.9732666015625,4.3365478515625
-0.578369140625,-0.1513671875,0.86474609375,-0.3509521484375,3.84521484375,0.00762939453125,66.8426513671875,56.9732666015625,3.1402587890625
-0.578857421875,-0.154296875,0.856201171875,-0.3814697265625,3.82232666015625,-1.9378662109375,64.7491455078125,57.2723388671875,3.1402587890625
-0.58349609375,-0.150146484375,0.874267578125,-0.4425048828125,0.030517578125,-0.1220703125,65.0482177734375,56.9732666015625,4.9346923828125
-0.593505859375,-0.151123046875,0.865966796875,-0.17547607421875,0.12969970703125,-0.3814697265625,65.9454345703125,56.3751220703125,4.0374755859375
-0.59130859375,-0.155517578125,0.858642578125,-0.457763671875,1.97601318359375,1.88446044921875,65.9454345703125,56.3751220703125,4.0374755859375
-0.576904296875,-0.15478515625,0.86279296875,-0.4730224609375,2.18963623046875,-0.14495849609375,67.1417236328125,56.6741943359375,3.1402587890625
-0.580078125,-0.15673828125,0.854736328125,-0.25177001953125,1.922607421875,-0.02288818359375,65.3472900390625,56.3751220703125,3.7384033203125
-0.58203125,-0.15576171875,0.8701171875,-0.1678466796875,2.1514892578125,-1.93023681640625,65.496826171875,56.2255859375,4.78515625
-0.57763671875,-0.15478515625,0.8564453125,-0.5340576171875,2.3193359375,0.0762939453125,66.39404296875,56.82373046875,3.5888671875
-0.578369140625,-0.15673828125,0.853271484375,-0.335693359375,1.85394287109375,-0.1678466796875,66.2445068359375,56.6741943359375,4.0374755859375
-0.58251953125,-0.146240234375,0.859619140625,-0.09918212890625,0.00762939453125,-0.37384033203125,66.693115234375,56.524658203125,4.486083984375
-0.593017578125,-0.1484375,0.8603515625,-0.2593994140625,2.05230712890625,-0.11444091796875,66.2445068359375,56.6741943359375,3.7384033203125
-0.576416015625,-0.152587890625,0.859130859375,-0.42724609375,2.09808349609375,-1.86920166015625,65.9454345703125,56.3751220703125,3.4393310546875
-0.581298828125,-0.15380859375,0.845703125,-0.30517578125,2.166748046875,-0.12969970703125,66.094970703125,56.524658203125,4.18701171875
-0.579833984375,-0.154296875,0.863525390625,-0.213623046875,1.983642578125,-0.00762939453125,65.3472900390625,56.9732666015625,3.4393310546875
-0.579833984375,-0.149658203125,0.86279296875,-0.14495849609375,1.64031982421875,-0.091552734375,64.599609375,55.926513671875,3.5888671875
-0.565185546875,-0.153076171875,0.859375,-0.1220703125,1.89971923828125,-0.31280517578125,66.2445068359375,55.7769775390625,5.2337646484375
-0.5791015625,-0.154296875,0.874267578125,0.244140625,2.38037109375,0.29754638671875,66.693115234375,57.720947265625,3.289794921875
-0.58203125,-0.15478515625,0.859619140625,0.22125244140625,2.15911865234375,0.00762939453125,67.59033203125,55.926513671875,4.486083984375
-0.57958984375,-0.15087890625,0.871337890625,-0.0152587890625,2.2735595703125,0.1373291015625,65.6463623046875,56.6741943359375,3.4393310546875
-0.58056640625,-0.15087890625,0.860107421875,0.3662109375,3.875732421875,1.922607421875,65.496826171875,56.524658203125,4.78515625
-0.580810546875,-0.15380859375,0.87255859375,0.08392333984375,2.25830078125,-0.1068115234375,65.9454345703125,56.3751220703125,4.3365478515625
-0.57861328125,-0.149658203125,0.860595703125,-1.953125,2.41851806640625,0.1068115234375,66.2445068359375,55.1788330078125,4.0374755859375
-0.58203125,-0.153564453125,0.864501953125,-0.274658203125,1.953125,-0.38909912109375,66.39404296875,55.328369140625,4.18701171875
-0.563232421875,-0.151123046875,0.844482421875,-0.1373291015625,2.3956298828125,-1.8310546875,64.599609375,55.926513671875,4.486083984375
-0.580078125,-0.153564453125,0.85400390625,-0.25177001953125,2.34222412109375,-0.22125244140625,65.9454345703125,55.1788330078125,4.3365478515625
-0.580810546875,-0.150146484375,0.85009765625,-0.05340576171875,2.26593017578125,-0.28228759765625,66.094970703125,56.2255859375,4.18701171875
-0.593017578125,-0.14892578125,0.860595703125,-0.396728515625,2.13623046875,-0.1678466796875,65.496826171875,56.524658203125,3.887939453125
-0.576904296875,-0.152587890625,0.853271484375,-0.4119873046875,2.12860107421875,0.1068115234375,66.094970703125,56.2255859375,4.78515625
-0.563232421875,-0.146728515625,0.864013671875,-0.37384033203125,3.88336181640625,-0.5340576171875,64.599609375,56.2255859375,3.5888671875
-0.578857421875,-0.14990234375,0.859130859375,-0.3204345703125,2.3193359375,1.9378662109375,65.3472900390625,56.6741943359375,4.0374755859375
-0.57861328125,-0.15234375,0.8583984375,-0.32806396484375,2.2430419921875,-1.93023681640625,65.496826171875,55.62744140625,4.78515625
-0.59326171875,-0.1513671875,0.855712890625,-0.518798828125,2.05230712890625,-0.2899169921875,66.9921875,56.2255859375,4.18701171875
-0.573974609375,-0.154541015625,0.8623046875,-0.41961669921875,2.41851806640625,-0.1373291015625,66.2445068359375,56.0760498046875,5.2337646484375
-0.5830078125,-0.15283203125,0.859619140625,-0.37384033203125,2.3193359375,-0.35858154296875,67.4407958984375,56.6741943359375,4.3365478515625
-0.576416015625,-0.14990234375,0.864501953125,-0.31280517578125,2.3956298828125,-0.48828125,65.7958984375,56.2255859375,3.289794921875
-0.59375,-0.15283203125,0.873779296875,-0.20599365234375,2.22015380859375,-0.1983642578125,65.0482177734375,55.7769775390625,3.7384033203125
-0.578857421875,-0.153564453125,0.85595703125,-0.5645751953125,2.55584716796875,-0.06866455078125,65.496826171875,56.2255859375,3.887939453125
-0.58349609375,-0.1474609375,0.872802734375,-0.19073486328125,2.44903564453125,1.8768310546875,65.9454345703125,56.0760498046875,4.6356201171875
-0.581787109375,-0.15234375,0.8564453125,-0.335693359375,2.3193359375,1.83868408203125,65.9454345703125,56.0760498046875,4.6356201171875
-0.5791015625,-0.152099609375,0.859619140625,-0.22125244140625,2.11334228515625,-0.11444091796875,65.9454345703125,56.0760498046875,4.6356201171875
-0.579833984375,-0.148681640625,0.8564453125,-0.1983642578125,2.20489501953125,-0.00762939453125,65.9454345703125,56.0760498046875,4.6356201171875
-0.5830078125,-0.151123046875,0.8583984375,0.030517578125,2.23541259765625,-0.45013427734375,65.7958984375,55.926513671875,3.5888671875
-0.57861328125,-0.153564453125,0.873046875,-0.5035400390625,2.3651123046875,-0.31280517578125,65.6463623046875,55.7769775390625,4.3365478515625
-0.577392578125,-0.150390625,0.857177734375,-0.274658203125,2.18963623046875,-0.06103515625,65.496826171875,55.62744140625,4.486083984375
-0.5791015625,-0.151123046875,0.857666015625,-0.57220458984375,2.15911865234375,-0.03814697265625,66.094970703125,56.2255859375,4.18701171875
-0.583251953125,-0.1552734375,0.86572265625,-0.31280517578125,2.2125244140625,-1.8768310546875,65.496826171875,56.82373046875,2.99072265625
-0.579345703125,-0.15283203125,0.865966796875,-0.35858154296875,2.26593017578125,0.09918212890625,65.496826171875,56.82373046875,2.99072265625
-0.58154296875,-0.153076171875,0.85888671875,-0.6256103515625,2.14385986328125,-0.2593994140625,65.496826171875,56.82373046875,2.99072265625
-0.580078125,-0.15234375,0.856689453125,-0.396728515625,2.05230712890625,-0.2899169921875,65.496826171875,56.82373046875,2.99072265625
-0.580810546875,-0.15185546875,0.858154296875,-0.5035400390625,1.93023681640625,-0.17547607421875,65.19775390625,55.328369140625,4.486083984375
-0.581298828125,-0.1484375,0.8466796875,-0.22125244140625,3.875732421875,-0.0762939453125,65.7958984375,55.926513671875,5.084228515625
-0.578857421875,-0.15234375,0.85302734375,-0.31280517578125,2.03704833984375,0.00762939453125,65.9454345703125,56.3751220703125,4.0374755859375
-0.577392578125,-0.1474609375,0.8544921875,-0.19073486328125,2.0904541015625,-0.14495849609375,65.9454345703125,56.3751220703125,4.0374755859375
-0.579833984375,-0.148681640625,0.856689453125,-0.41961669921875,1.74713134765625,-0.1678466796875,65.9454345703125,56.3751220703125,4.0374755859375
-0.58056640625,-0.1494140625,0.8623046875,-0.37384033203125,2.01416015625,-0.17547607421875,65.9454345703125,56.3751220703125,4.0374755859375
-0.579833984375,-0.153076171875,0.8720703125,-0.3814697265625,1.59454345703125,-0.2593994140625,65.6463623046875,57.5714111328125,4.9346923828125
-0.581787109375,-0.14990234375,0.860107421875,-0.35858154296875,1.6326904296875,-0.12969970703125,65.3472900390625,55.4779052734375,4.9346923828125
-0.579345703125,-0.15380859375,0.85400390625,-0.2288818359375,1.45721435546875,-1.89208984375,66.8426513671875,55.4779052734375,4.0374755859375
-0.5830078125,-0.151123046875,0.84423828125,-0.4119873046875,1.495361328125,-0.06103515625,65.0482177734375,56.9732666015625,5.5328369140625
-0.593017578125,-0.15087890625,0.860107421875,-0.3204345703125,1.6326904296875,-0.30517578125,65.0482177734375,56.9732666015625,5.5328369140625
-0.5810546875,-0.15283203125,0.86181640625,-0.25177001953125,1.4495849609375,-0.030517578125,65.0482177734375,56.9732666015625,5.5328369140625
-0.57861328125,-0.147216796875,0.84521484375,-0.2899169921875,1.708984375,-0.29754638671875,65.0482177734375,56.9732666015625,5.5328369140625
-0.578125,-0.147216796875,0.85791015625,-0.3509521484375,1.7242431640625,-0.03814697265625,64.599609375,55.926513671875,3.5888671875
-0.581787109375,-0.148681640625,0.860595703125,-0.38909912109375,2.26593017578125,-0.40435791015625,65.3472900390625,57.2723388671875,3.7384033203125
-0.563720703125,-0.1484375,0.874267578125,-0.41961669921875,2.0294189453125,-0.0457763671875,65.3472900390625,58.4686279296875,2.8411865234375
-0.580810546875,-0.15185546875,0.857421875,-0.35858154296875,2.14385986328125,-0.17547607421875,65.3472900390625,58.4686279296875,2.8411865234375
-0.57763671875,-0.151123046875,0.86572265625,-0.32806396484375,2.37274169921875,-0.1678466796875,65.3472900390625,58.4686279296875,2.8411865234375
-0.580322265625,-0.1513671875,0.862548828125,-0.274658203125,2.471923828125,0.00762939453125,65.3472900390625,58.4686279296875,2.8411865234375
-0.5810546875,-0.151123046875,0.861083984375,-0.38909912109375,2.227783203125,-0.03814697265625,65.19775390625,55.029296875,2.392578125
-0.57958984375,-0.151123046875,0.86181640625,-0.3814697265625,2.15911865234375,-0.1983642578125,66.2445068359375,54.8797607421875,4.0374755859375
-0.57861328125,-0.15185546875,0.867431640625,-0.2288818359375,0.02288818359375,-0.19073486328125,66.094970703125,56.524658203125,3.5888671875
-0.580322265625,-0.14990234375,0.861328125,-0.34332275390625,2.25067138671875,0.16021728515625,66.094970703125,56.524658203125,3.5888671875
-0.578125,-0.150634765625,0.867431640625,-0.5340576171875,2.47955322265625,0.1068115234375,66.094970703125,56.524658203125,3.5888671875
-0.580810546875,-0.151123046875,0.855224609375,-0.2899169921875,2.1514892578125,0.14495849609375,65.9454345703125,55.7769775390625,4.3365478515625
-0.580078125,-0.153564453125,0.856201171875,-0.4730224609375,2.1514892578125,0.03814697265625,65.6463623046875,56.9732666015625,4.3365478515625
-0.58203125,-0.15087890625,0.860595703125,-0.26702880859375,2.0904541015625,-0.2288818359375,64.599609375,55.62744140625,4.78515625
-0.57861328125,-0.150634765625,0.86279296875,-0.41961669921875,2.09808349609375,-0.20599365234375,64.599609375,55.62744140625,4.78515625
-0.57958984375,-0.148193359375,0.857421875,-0.58746337890625,2.35748291015625,-0.1373291015625,64.599609375,55.62744140625,4.78515625
-0.580810546875,-0.154052734375,0.858154296875,-0.38909912109375,1.71661376953125,-0.30517578125,66.8426513671875,56.0760498046875,4.6356201171875
-0.57763671875,-0.150146484375,0.856201171875,-0.40435791015625,2.044677734375,-0.1678466796875,66.8426513671875,57.2723388671875,3.4393310546875
-0.578857421875,-0.15087890625,0.862060546875,-0.57220458984375,1.8768310546875,-0.31280517578125,64.898681640625,56.82373046875,3.887939453125
-0.579833984375,-0.151123046875,0.857177734375,-0.35858154296875,2.15911865234375,-0.14495849609375,66.39404296875,55.926513671875,4.486083984375
-0.583251953125,-0.15185546875,0.859375,-0.3204345703125,2.1209716796875,-0.30517578125,66.39404296875,55.926513671875,4.486083984375
-0.580322265625,-0.150146484375,0.860107421875,-0.31280517578125,2.17437744140625,-0.22125244140625,66.39404296875,55.926513671875,4.486083984375
-0.57763671875,-0.150634765625,0.8623046875,-0.4730224609375,1.922607421875,-0.12969970703125,66.094970703125,56.524658203125,3.289794921875
-0.57861328125,-0.147216796875,0.857177734375,-0.3814697265625,0.030517578125,-0.09918212890625,65.496826171875,56.2255859375,4.486083984375
-0.579833984375,-0.150634765625,0.856201171875,-0.55694580078125,2.25830078125,-0.12969970703125,66.8426513671875,55.4779052734375,4.9346923828125
-0.578857421875,-0.1513671875,0.845458984375,-0.6103515625,2.18963623046875,-0.4425048828125,66.8426513671875,55.4779052734375,4.9346923828125
-0.5791015625,-0.15185546875,0.856689453125,-0.52642822265625,1.86920166015625,-1.89208984375,66.8426513671875,55.4779052734375,4.9346923828125
-0.58056640625,-0.1533203125,0.861328125,-0.66375732421875,2.105712890625,-0.244140625,66.8426513671875,55.4779052734375,4.9346923828125
-0.580810546875,-0.151611328125,0.85791015625,-0.579833984375,2.34222412109375,-0.396728515625,66.094970703125,55.926513671875,4.486083984375
-0.58251953125,-0.1533203125,0.8642578125,-0.5645751953125,2.00653076171875,-0.05340576171875,67.291259765625,55.328369140625,4.78515625
-0.57958984375,-0.14794921875,0.86181640625,-0.48828125,1.83868408203125,-0.2288818359375,65.19775390625,56.2255859375,4.78515625
-0.58154296875,-0.15234375,0.844970703125,-0.3204345703125,1.6937255859375,-0.1678466796875,65.19775390625,56.2255859375,4.78515625
-0.580322265625,-0.1533203125,0.8603515625,-0.579833984375,1.94549560546875,1.93023681640625,65.19775390625,56.2255859375,4.78515625
-0.580322265625,-0.147705078125,0.862060546875,-0.75531005859375,2.08282470703125,-0.26702880859375,65.19775390625,56.2255859375,4.78515625
-0.583740234375,-0.148681640625,0.863525390625,-0.58746337890625,1.89971923828125,-0.26702880859375,65.496826171875,56.2255859375,2.99072265625
-0.581298828125,-0.15234375,0.8564453125,-0.45013427734375,2.09808349609375,-0.335693359375,65.496826171875,57.421875,4.486083984375
-0.58154296875,-0.151611328125,0.85986328125,-0.244140625,2.31170654296875,-0.02288818359375,64.7491455078125,56.6741943359375,4.9346923828125
-0.579833984375,-0.146728515625,0.86474609375,-0.2288818359375,1.86920166015625,-0.274658203125,64.7491455078125,56.6741943359375,4.9346923828125
-0.575927734375,-0.15283203125,0.857177734375,-0.4119873046875,1.8463134765625,-0.31280517578125,64.7491455078125,56.6741943359375,4.9346923828125
-0.5791015625,-0.151123046875,0.862060546875,-0.38909912109375,1.96075439453125,-0.3204345703125,65.496826171875,56.2255859375,4.78515625
-0.580322265625,-0.153076171875,0.8583984375,-0.22125244140625,2.13623046875,-0.2593994140625,65.3472900390625,56.6741943359375,3.7384033203125
-0.562744140625,-0.154052734375,0.871826171875,-0.55694580078125,2.03704833984375,-1.76239013671875,65.6463623046875,56.0760498046875,4.3365478515625
-0.579833984375,-0.156005859375,0.843994140625,-0.64849853515625,2.11334228515625,0.09918212890625,65.6463623046875,56.0760498046875,4.3365478515625
-0.583740234375,-0.152099609375,0.855224609375,-0.5340576171875,1.9683837890625,-0.2899169921875,65.6463623046875,56.0760498046875,4.3365478515625
-0.578369140625,-0.15087890625,0.85546875,-0.35858154296875,2.13623046875,-0.1983642578125,65.9454345703125,56.3751220703125,4.6356201171875
-0.579345703125,-0.15234375,0.85693359375,-0.48065185546875,2.12860107421875,-0.38909912109375,64.599609375,56.2255859375,5.084228515625
-0.564697265625,-0.15380859375,0.85791015625,-0.457763671875,2.18963623046875,-1.9073486328125,66.39404296875,57.421875,3.887939453125
-0.579345703125,-0.14794921875,0.854248046875,-0.335693359375,2.1514892578125,-0.213623046875,66.39404296875,57.421875,3.887939453125
-0.593505859375,-0.149658203125,0.85888671875,-0.43487548828125,2.2735595703125,-0.1983642578125,66.39404296875,57.421875,3.887939453125
-0.579345703125,-0.1494140625,0.85693359375,-0.4730224609375,2.17437744140625,-0.28228759765625,66.39404296875,57.421875,3.887939453125
-0.58203125,-0.153076171875,0.8642578125,-0.48065185546875,2.09808349609375,-0.5645751953125,65.7958984375,56.2255859375,4.18701171875
-0.582275390625,-0.155517578125,0.86572265625,-0.55694580078125,2.18963623046875,-0.17547607421875,64.898681640625,56.524658203125,3.887939453125
-0.57568359375,-0.154052734375,0.862060546875,-0.48828125,2.1820068359375,0.06103515625,66.39404296875,56.82373046875,3.887939453125
-0.5771484375,-0.153076171875,0.84375,-0.38909912109375,2.1209716796875,-0.1373291015625,66.39404296875,56.82373046875,3.887939453125
-0.579833984375,-0.154541015625,0.85107421875,-0.58746337890625,3.8299560546875,-0.25177001953125,66.39404296875,56.82373046875,3.887939453125
-0.579833984375,-0.14892578125,0.858154296875,-0.63323974609375,2.1820068359375,-0.26702880859375,66.9921875,55.029296875,3.5888671875
-0.580810546875,-0.1494140625,0.86572265625,-0.3509521484375,2.05230712890625,-0.18310546875,65.3472900390625,55.7769775390625,3.7384033203125
-0.592529296875,-0.150634765625,0.86328125,-0.48828125,2.4871826171875,-0.35858154296875,65.6463623046875,55.4779052734375,3.7384033203125
-0.593017578125,-0.153564453125,0.844482421875,-0.3662109375,2.29644775390625,-0.2593994140625,65.0482177734375,55.4779052734375,4.3365478515625
-0.5810546875,-0.154052734375,0.84765625,-0.52642822265625,2.35748291015625,-0.61798095703125,66.2445068359375,55.4779052734375,5.2337646484375
-0.578369140625,-0.1513671875,0.8642578125,-0.22125244140625,2.349853515625,1.79290771484375,66.2445068359375,56.6741943359375,4.9346923828125
-0.580322265625,-0.1494140625,0.86474609375,-0.4119873046875,2.05230712890625,-0.48828125,65.9454345703125,56.3751220703125,4.0374755859375
-0.565673828125,-0.150390625,0.84619140625,-0.78582763671875,2.044677734375,-0.05340576171875,66.094970703125,56.2255859375,2.99072265625
-0.57958984375,-0.15234375,0.843994140625,-0.51116943359375,2.349853515625,1.77764892578125,65.19775390625,56.2255859375,4.486083984375
-0.5830078125,-0.153564453125,0.854736328125,-0.8087158203125,2.06756591796875,-0.34332275390625,64.898681640625,55.029296875,5.38330078125
-0.578857421875,-0.14990234375,0.859619140625,-0.52642822265625,2.227783203125,-0.2899169921875,66.9921875,56.2255859375,5.682373046875
-0.58203125,-0.15185546875,0.872314453125,-0.3814697265625,2.37274169921875,-0.42724609375,65.6463623046875,56.6741943359375,5.5328369140625
-0.591796875,-0.14990234375,0.86376953125,-0.64849853515625,2.08282470703125,-0.29754638671875,65.0482177734375,56.9732666015625,4.0374755859375
-0.579833984375,-0.1513671875,0.8564453125,-0.63323974609375,2.25830078125,-0.274658203125,65.19775390625,56.2255859375,3.5888671875
-0.579833984375,-0.153076171875,0.85498046875,-0.38909912109375,2.044677734375,-0.4730224609375,65.6463623046875,56.3751220703125,4.3365478515625
-0.58203125,-0.15380859375,0.8740234375,-0.579833984375,2.044677734375,-0.16021728515625,66.5435791015625,55.1788330078125,4.0374755859375
-0.582763671875,-0.151123046875,0.85986328125,-0.5035400390625,2.0294189453125,1.76239013671875,66.2445068359375,55.7769775390625,4.3365478515625
-0.59326171875,-0.151611328125,0.85986328125,-0.43487548828125,2.09808349609375,-0.28228759765625,66.5435791015625,55.1788330078125,5.5328369140625
-0.57861328125,-0.15087890625,0.873779296875,-0.5035400390625,0.0457763671875,-0.396728515625,64.599609375,56.82373046875,4.486083984375
-0.579345703125,-0.153564453125,0.84375,-0.4119873046875,2.410888671875,-0.32806396484375,66.693115234375,57.421875,3.887939453125
-0.580810546875,-0.154052734375,0.84521484375,-0.61798095703125,2.197265625,-0.4119873046875,66.2445068359375,55.4779052734375,4.9346923828125
-0.5771484375,-0.151611328125,0.85791015625,-0.55694580078125,2.197265625,-0.12969970703125,65.0482177734375,56.6741943359375,4.3365478515625
-0.580078125,-0.152587890625,0.845947265625,-0.518798828125,2.38800048828125,-0.28228759765625,65.9454345703125,55.4779052734375,3.4393310546875
-0.581787109375,-0.153564453125,0.869873046875,-0.3662109375,2.1209716796875,-0.5035400390625,66.094970703125,55.926513671875,3.5888671875
-0.5810546875,-0.156005859375,0.863525390625,-0.335693359375,2.11334228515625,0.18310546875,66.39404296875,56.2255859375,5.682373046875
-0.579345703125,-0.15380859375,0.860595703125,-0.31280517578125,1.97601318359375,-0.2899169921875,66.39404296875,55.926513671875,4.78515625
-0.58544921875,-0.1513671875,0.857177734375,-0.2593994140625,1.953125,-0.2899169921875,65.7958984375,55.926513671875,5.084228515625
-0.5810546875,-0.155517578125,0.860107421875,-0.48828125,1.6326904296875,-0.20599365234375,65.9454345703125,56.3751220703125,3.4393310546875
-0.575927734375,-0.15625,0.858642578125,-0.26702880859375,2.0904541015625,-0.1068115234375,64.898681640625,55.328369140625,3.5888671875
-0.58251953125,-0.152587890625,0.859619140625,-0.32806396484375,2.54058837890625,0.02288818359375,66.2445068359375,54.8797607421875,4.3365478515625
-0.592529296875,-0.15234375,0.845703125,-0.40435791015625,2.34222412109375,-0.3509521484375,66.094970703125,55.926513671875,4.486083984375
-0.564453125,-0.15380859375,0.863037109375,-0.091552734375,1.9989013671875,-0.30517578125,66.39404296875,55.029296875,4.18701171875
-0.57861328125,-0.154541015625,0.85986328125,-0.1373291015625,1.7852783203125,1.94549560546875,64.7491455078125,57.2723388671875,4.6356201171875
-0.579833984375,-0.152099609375,0.862548828125,-0.2288818359375,1.617431640625,-0.1373291015625,66.2445068359375,55.7769775390625,4.3365478515625
-0.58056640625,-0.1552734375,0.874755859375,1.8768310546875,1.6326904296875,0.1983642578125,65.0482177734375,56.0760498046875,4.0374755859375
-0.58349609375,-0.153564453125,0.874267578125,1.74713134765625,1.44195556640625,-1.6937255859375,64.898681640625,56.2255859375,3.5888671875
-0.582763671875,-0.15185546875,0.865234375,0.03814697265625,2.25830078125,0.244140625,65.496826171875,55.926513671875,4.18701171875
-0.5791015625,-0.150390625,0.861572265625,-0.05340576171875,2.1514892578125,-0.26702880859375,64.300537109375,55.62744140625,2.691650390625
-0.57861328125,-0.15185546875,0.856689453125,-0.1373291015625,2.349853515625,-0.30517578125,64.300537109375,55.62744140625,2.691650390625
-0.578369140625,-0.14990234375,0.84375,-0.274658203125,2.40325927734375,-0.152587890625,66.8426513671875,56.0760498046875,4.6356201171875
-0.581298828125,-0.15283203125,0.856201171875,-0.38909912109375,2.3193359375,1.71661376953125,66.2445068359375,56.0760498046875,4.9346923828125
-0.578857421875,-0.155029296875,0.845947265625,-0.20599365234375,1.99127197265625,0.11444091796875,66.8426513671875,55.4779052734375,3.7384033203125
-0.562744140625,-0.1572265625,0.84375,-0.030517578125,1.9683837890625,1.82342529296875,65.19775390625,55.328369140625,4.486083984375
-0.56298828125,-0.154052734375,0.85595703125,-0.1983642578125,2.166748046875,-0.12969970703125,66.094970703125,55.62744140625,4.486083984375
-0.57861328125,-0.148681640625,0.85791015625,-0.06866455078125,2.13623046875,1.9378662109375,65.6463623046875,57.2723388671875,4.3365478515625
-0.563720703125,-0.151123046875,0.845947265625,-0.25177001953125,1.9683837890625,-0.030517578125,67.291259765625,55.328369140625,3.5888671875
-0.575927734375,-0.151123046875,0.85888671875,1.83868408203125,2.044677734375,-0.0762939453125,65.496826171875,56.82373046875,4.78515625
-0.578369140625,-0.15380859375,0.858154296875,-0.29754638671875,2.23541259765625,-0.3509521484375,65.9454345703125,56.0760498046875,2.8411865234375
-0.57958984375,-0.15234375,0.84619140625,-0.19073486328125,0.152587890625,-1.91497802734375,65.6463623046875,55.1788330078125,4.3365478515625
-0.563720703125,-0.1552734375,0.858642578125,-0.38909912109375,1.96075439453125,-0.030517578125,65.496826171875,55.328369140625,3.887939453125
-0.562744140625,-0.152099609375,0.86279296875,-0.34332275390625,2.12860107421875,-0.1220703125,65.0482177734375,57.2723388671875,2.8411865234375
-0.58056640625,-0.154052734375,0.86181640625,-0.11444091796875,2.0294189453125,-0.3662109375,65.0482177734375,57.2723388671875,2.8411865234375
-0.578857421875,-0.1513671875,0.87451171875,-0.40435791015625,2.0294189453125,-0.17547607421875,65.0482177734375,57.2723388671875,2.8411865234375
-0.580322265625,-0.152587890625,0.846435546875,-0.1983642578125,2.0599365234375,-0.5340576171875,65.496826171875,55.328369140625,3.5888671875
-0.5830078125,-0.15185546875,0.87255859375,-0.457763671875,1.89971923828125,-0.152587890625,65.0482177734375,56.9732666015625,3.7384033203125
-0.582275390625,-0.15380859375,0.872802734375,-0.35858154296875,0.03814697265625,-0.18310546875,66.2445068359375,55.7769775390625,4.0374755859375
-0.57958984375,-0.153564453125,0.856689453125,-0.5645751953125,2.1209716796875,-0.32806396484375,65.7958984375,56.2255859375,4.18701171875
-0.58056640625,-0.1513671875,0.865478515625,-0.54931640625,2.09808349609375,-0.23651123046875,65.6463623046875,56.0760498046875,3.1402587890625
-0.5810546875,-0.153076171875,0.853271484375,-0.54168701171875,2.0904541015625,-0.28228759765625,67.291259765625,57.421875,3.5888671875
-0.580322265625,-0.1533203125,0.85693359375,-0.43487548828125,2.29644775390625,0.1678466796875,65.496826171875,56.2255859375,4.486083984375
-0.5810546875,-0.149169921875,0.85791015625,-1.922607421875,2.1209716796875,-0.20599365234375,66.39404296875,55.926513671875,4.18701171875
-0.578857421875,-0.15185546875,0.851806640625,-0.4119873046875,2.2430419921875,-0.1373291015625,65.3472900390625,56.6741943359375,2.5421142578125
-0.581787109375,-0.154541015625,0.857421875,-0.17547607421875,2.46429443359375,-0.12969970703125,66.5435791015625,55.7769775390625,2.5421142578125
-0.578125,-0.14208984375,0.874755859375,-0.35858154296875,2.166748046875,-0.28228759765625,66.5435791015625,56.9732666015625,4.0374755859375
-0.58203125,-0.151123046875,0.870361328125,-0.18310546875,2.3040771484375,1.82342529296875,65.3472900390625,56.0760498046875,3.7384033203125
-0.5927734375,-0.155517578125,0.85986328125,-0.11444091796875,2.02178955078125,-1.953125,66.39404296875,56.2255859375,3.887939453125
-0.57763671875,-0.154052734375,0.855712890625,-0.05340576171875,2.40325927734375,-0.09918212890625,64.898681640625,56.524658203125,3.289794921875
-0.579833984375,-0.14892578125,0.84619140625,-0.3204345703125,2.2735595703125,-0.2288818359375,65.0482177734375,56.3751220703125,3.7384033203125
-0.581787109375,-0.151611328125,0.85498046875,-0.1068115234375,2.15911865234375,-0.49591064453125,65.496826171875,56.2255859375,3.887939453125
-0.57763671875,-0.152099609375,0.844482421875,-0.06866455078125,2.2430419921875,1.89208984375,65.7958984375,56.82373046875,5.38330078125
-0.579833984375,-0.150146484375,0.8564453125,-0.2899169921875,2.14385986328125,-0.29754638671875,66.8426513671875,55.4779052734375,3.4393310546875
-0.58154296875,-0.1533203125,0.843994140625,-0.38909912109375,2.2125244140625,-0.41961669921875,65.7958984375,57.122802734375,3.5888671875
-0.582275390625,-0.15576171875,0.84375,-0.23651123046875,2.1209716796875,-0.48828125,65.7958984375,57.122802734375,3.5888671875
-0.579345703125,-0.151611328125,0.86083984375,-0.41961669921875,1.953125,-0.32806396484375,65.7958984375,57.122802734375,3.5888671875
-0.5791015625,-0.14892578125,0.84912109375,-0.396728515625,1.983642578125,-0.2288818359375,65.3472900390625,55.4779052734375,4.0374755859375
-0.583740234375,-0.149658203125,0.85986328125,-0.244140625,1.922607421875,-0.20599365234375,66.39404296875,57.122802734375,4.18701171875
-0.58544921875,-0.14990234375,0.846435546875,-0.20599365234375,2.1209716796875,-0.37384033203125,64.7491455078125,55.7769775390625,4.0374755859375
-0.58056640625,-0.151123046875,0.858154296875,-0.19073486328125,1.93023681640625,0.0152587890625,64.7491455078125,55.7769775390625,4.0374755859375
-0.58251953125,-0.153076171875,0.8583984375,-0.22125244140625,2.05230712890625,-0.5645751953125,64.7491455078125,55.7769775390625,4.0374755859375
-0.5810546875,-0.14990234375,0.85791015625,-0.34332275390625,3.82232666015625,-0.244140625,64.7491455078125,55.7769775390625,4.0374755859375
-0.582275390625,-0.148681640625,0.859375,-0.30517578125,2.105712890625,-0.2899169921875,65.0482177734375,56.0760498046875,5.8319091796875
-0.58203125,-0.151611328125,0.858642578125,-0.26702880859375,0.00762939453125,-0.26702880859375,65.496826171875,56.82373046875,3.5888671875
-0.58203125,-0.153564453125,0.857177734375,-0.46539306640625,2.23541259765625,-0.20599365234375,66.693115234375,55.926513671875,4.78515625
-0.5791015625,-0.15185546875,0.855712890625,-0.32806396484375,2.23541259765625,-0.3204345703125,66.693115234375,55.926513671875,4.78515625
-0.58056640625,-0.151611328125,0.86083984375,-0.25177001953125,2.37274169921875,-0.34332275390625,66.693115234375,55.926513671875,4.78515625
-0.580322265625,-0.15576171875,0.857421875,-0.34332275390625,2.46429443359375,-0.26702880859375,66.2445068359375,56.9732666015625,4.3365478515625
-0.58056640625,-0.15185546875,0.858642578125,-0.20599365234375,2.0294189453125,-0.12969970703125,64.898681640625,55.926513671875,4.486083984375
-0.579345703125,-0.1513671875,0.857421875,-0.3814697265625,2.20489501953125,-0.213623046875,65.9454345703125,56.0760498046875,4.0374755859375
-0.58056640625,-0.151611328125,0.857666015625,-0.37384033203125,2.09808349609375,-0.31280517578125,65.9454345703125,56.0760498046875,4.0374755859375
-0.58056640625,-0.152587890625,0.861083984375,-0.5645751953125,1.9989013671875,-0.14495849609375,65.9454345703125,56.0760498046875,4.0374755859375
-0.563720703125,-0.154541015625,0.861572265625,-0.60272216796875,2.410888671875,-0.23651123046875,65.9454345703125,56.0760498046875,4.0374755859375
-0.58056640625,-0.14208984375,0.86279296875,-0.457763671875,2.14385986328125,-0.2288818359375,66.693115234375,56.524658203125,5.38330078125
-0.578857421875,-0.15185546875,0.856689453125,-0.32806396484375,2.31170654296875,0.091552734375,64.898681640625,56.2255859375,3.289794921875
-0.577880859375,-0.149658203125,0.85888671875,-0.457763671875,2.0599365234375,1.91497802734375,66.8426513671875,56.3751220703125,3.7384033203125
-0.57958984375,-0.156982421875,0.8564453125,-0.335693359375,2.2735595703125,-0.22125244140625,66.8426513671875,56.3751220703125,3.7384033203125
-0.5791015625,-0.15576171875,0.862548828125,-0.396728515625,2.2735595703125,-0.35858154296875,66.8426513671875,56.3751220703125,3.7384033203125
-0.579833984375,-0.152099609375,0.854248046875,-0.58746337890625,2.41851806640625,0.1220703125,65.0482177734375,56.6741943359375,5.2337646484375
-0.593505859375,-0.153564453125,0.855224609375,-0.25177001953125,1.99127197265625,-0.2899169921875,66.39404296875,55.62744140625,4.18701171875
-0.57861328125,-0.15087890625,0.861572265625,-0.4119873046875,2.1209716796875,-0.0152587890625,65.19775390625,56.524658203125,2.691650390625
-0.580078125,-0.15087890625,0.852783203125,-0.28228759765625,1.91497802734375,-0.06866455078125,65.19775390625,56.524658203125,2.691650390625
-0.58251953125,-0.153076171875,0.856689453125,-0.34332275390625,2.288818359375,-0.518798828125,65.19775390625,56.524658203125,2.691650390625
-0.580322265625,-0.15185546875,0.857666015625,-0.48065185546875,2.4261474609375,-0.244140625,66.5435791015625,54.5806884765625,3.7384033203125
-0.580078125,-0.153564453125,0.8583984375,-0.396728515625,1.9989013671875,0.08392333984375,65.6463623046875,55.4779052734375,4.6356201171875
-0.578857421875,-0.154296875,0.8564453125,-0.46539306640625,2.26593017578125,1.77764892578125,66.094970703125,55.926513671875,3.887939453125
-0.578857421875,-0.153076171875,0.846435546875,-0.335693359375,1.9683837890625,-0.22125244140625,66.094970703125,55.926513671875,3.887939453125
-0.584228515625,-0.150634765625,0.85888671875,-0.26702880859375,2.2125244140625,-0.1068115234375,66.094970703125,55.926513671875,3.887939453125
-0.577392578125,-0.151123046875,0.859375,-0.244140625,0.02288818359375,-0.16021728515625,65.496826171875,55.328369140625,3.289794921875
-0.58447265625,-0.15087890625,0.851806640625,-0.2899169921875,1.953125,1.9378662109375,65.6463623046875,56.3751220703125,4.3365478515625
-0.580078125,-0.15234375,0.853271484375,-0.3204345703125,3.85284423828125,-0.3204345703125,66.9921875,57.122802734375,4.18701171875
-0.578857421875,-0.15234375,0.857177734375,-0.2288818359375,1.8768310546875,0.152587890625,66.9921875,57.122802734375,4.18701171875
-0.57958984375,-0.150390625,0.8525390625,-0.55694580078125,2.1209716796875,-0.1678466796875,66.9921875,57.122802734375,4.18701171875
-0.578857421875,-0.14990234375,0.862548828125,-0.30517578125,2.0904541015625,-0.14495849609375,66.9921875,57.122802734375,4.18701171875
-0.580078125,-0.15185546875,0.852294921875,-0.18310546875,1.9989013671875,-0.06866455078125,66.094970703125,55.62744140625,4.486083984375
-0.57666015625,-0.152099609375,0.861328125,-0.396728515625,1.7852783203125,-0.3662109375,66.39404296875,55.62744140625,3.5888671875
-0.580322265625,-0.156494140625,0.855712890625,-0.152587890625,2.22015380859375,0.17547607421875,66.2445068359375,56.0760498046875,4.0374755859375
-0.5810546875,-0.150634765625,0.862060546875,1.86920166015625,2.28118896484375,-0.03814697265625,66.2445068359375,56.0760498046875,4.0374755859375
-0.581787109375,-0.147705078125,0.85986328125,-0.244140625,2.4261474609375,-0.1983642578125,66.2445068359375,56.0760498046875,4.0374755859375
-0.5830078125,-0.150146484375,0.87353515625,-0.25177001953125,2.46429443359375,-0.2593994140625,65.3472900390625,55.4779052734375,4.0374755859375
-0.582275390625,-0.155517578125,0.86181640625,-0.274658203125,2.1514892578125,0.1983642578125,66.094970703125,56.524658203125,4.78515625
-0.58203125,-0.1513671875,0.853759765625,-0.4119873046875,1.80816650390625,-0.19073486328125,64.599609375,55.62744140625,4.486083984375
-0.580810546875,-0.14892578125,0.855224609375,-0.17547607421875,2.13623046875,-0.35858154296875,64.599609375,55.62744140625,4.486083984375
-0.5791015625,-0.15185546875,0.859619140625,-0.274658203125,2.01416015625,-0.5035400390625,64.599609375,55.62744140625,4.486083984375
-0.5810546875,-0.151123046875,0.86083984375,-0.18310546875,1.8768310546875,-0.06866455078125,65.496826171875,56.2255859375,5.084228515625
-0.578857421875,-0.1455078125,0.85888671875,-0.55694580078125,1.91497802734375,-0.03814697265625,65.7958984375,56.82373046875,3.289794921875
-0.583740234375,-0.151123046875,0.856201171875,-0.4425048828125,1.42669677734375,-0.640869140625,66.39404296875,56.2255859375,4.486083984375
-0.58056640625,-0.1669921875,0.852294921875,-0.32806396484375,1.8157958984375,-0.00762939453125,66.39404296875,56.2255859375,4.486083984375
-0.58447265625,-0.156005859375,0.859375,-0.06866455078125,1.190185546875,1.7852783203125,66.39404296875,56.2255859375,4.486083984375
-0.57275390625,-0.14404296875,0.865234375,-0.28228759765625,1.495361328125,-0.3204345703125,66.693115234375,57.122802734375,5.38330078125
-0.581298828125,-0.155029296875,0.8583984375,-0.091552734375,1.251220703125,-0.091552734375,65.0482177734375,55.4779052734375,3.4393310546875
-0.578369140625,-0.145263671875,0.8583984375,-0.457763671875,1.861572265625,-0.03814697265625,64.898681640625,58.02001953125,5.682373046875
-0.58056640625,-0.15576171875,0.8583984375,-0.3509521484375,3.8299560546875,1.94549560546875,64.898681640625,58.02001953125,5.682373046875
-0.57373046875,-0.1416015625,0.862060546875,-0.1373291015625,2.25830078125,1.88446044921875,64.898681640625,58.02001953125,5.682373046875
-0.57861328125,-0.152587890625,0.8642578125,-0.34332275390625,2.227783203125,-0.1983642578125,64.898681640625,58.02001953125,5.682373046875
-0.581787109375,-0.1552734375,0.86083984375,-0.152587890625,2.3040771484375,-0.09918212890625,64.300537109375,55.62744140625,4.78515625
-0.5927734375,-0.150634765625,0.859619140625,-0.29754638671875,2.1820068359375,-0.1373291015625,68.0389404296875,55.7769775390625,4.6356201171875
-0.581787109375,-0.150634765625,0.85888671875,-0.2899169921875,2.41851806640625,0.05340576171875,68.0389404296875,55.7769775390625,4.6356201171875
-0.578857421875,-0.156005859375,0.86474609375,-0.26702880859375,2.06756591796875,-0.29754638671875,68.0389404296875,55.7769775390625,4.6356201171875
-0.57861328125,-0.152099609375,0.8623046875,-0.2288818359375,2.26593017578125,-0.43487548828125,68.0389404296875,55.7769775390625,4.6356201171875
-0.5810546875,-0.15380859375,0.859130859375,-0.32806396484375,2.14385986328125,-0.0152587890625,64.898681640625,54.730224609375,2.691650390625
-0.579345703125,-0.15283203125,0.857177734375,-0.11444091796875,2.35748291015625,-0.3509521484375,65.496826171875,55.62744140625,4.486083984375
-0.585205078125,-0.15673828125,0.8564453125,-1.953125,2.09808349609375,-0.12969970703125,66.9921875,56.82373046875,3.887939453125
-0.579345703125,-0.1689453125,0.86328125,-0.274658203125,2.2735595703125,1.91497802734375,66.9921875,56.82373046875,3.887939453125
-0.578857421875,-0.150634765625,0.85888671875,-0.1220703125,2.20489501953125,-0.02288818359375,66.9921875,56.82373046875,3.887939453125
-0.5810546875,-0.146484375,0.843994140625,-0.05340576171875,2.0751953125,-0.1678466796875,66.2445068359375,54.8797607421875,4.6356201171875
-0.580078125,-0.15185546875,0.856689453125,-0.3204345703125,2.20489501953125,-0.25177001953125,65.6463623046875,56.6741943359375,4.9346923828125
-0.581298828125,-0.14990234375,0.865234375,-0.30517578125,2.105712890625,-0.52642822265625,65.9454345703125,55.4779052734375,4.3365478515625
-0.563720703125,-0.15185546875,0.857666015625,-0.28228759765625,1.99127197265625,-0.32806396484375,65.9454345703125,55.4779052734375,4.3365478515625
-0.58203125,-0.153076171875,0.857421875,-0.37384033203125,3.86810302734375,-0.3662109375,65.9454345703125,55.4779052734375,4.3365478515625
-0.579833984375,-0.150634765625,0.859619140625,-0.3814697265625,2.09808349609375,-0.3814697265625,65.3472900390625,56.3751220703125,4.0374755859375
-0.5810546875,-0.1513671875,0.857177734375,-0.3814697265625,1.77764892578125,-1.7547607421875,66.2445068359375,55.4779052734375,4.0374755859375
-0.5830078125,-0.15380859375,0.85888671875,-0.3814697265625,1.6937255859375,-0.2899169921875,65.496826171875,55.62744140625,4.18701171875
-0.5791015625,-0.1513671875,0.86572265625,-0.45013427734375,2.08282470703125,-0.0457763671875,65.496826171875,57.122802734375,4.486083984375
-0.577392578125,-0.15185546875,0.8583984375,-0.2593994140625,2.288818359375,-0.23651123046875,65.496826171875,57.122802734375,4.486083984375
-0.5791015625,-0.1484375,0.85791015625,-0.48065185546875,2.0904541015625,-0.41961669921875,65.496826171875,57.122802734375,4.486083984375
-0.580322265625,-0.155029296875,0.861083984375,-0.3509521484375,2.25067138671875,-0.396728515625,65.496826171875,57.122802734375,4.486083984375
-0.58154296875,-0.149658203125,0.8740234375,-0.38909912109375,2.18963623046875,-0.11444091796875,65.9454345703125,55.7769775390625,4.0374755859375
-0.581787109375,-0.152587890625,0.861083984375,-0.06866455078125,2.105712890625,-0.03814697265625,65.9454345703125,56.3751220703125,3.7384033203125
-0.579345703125,-0.151123046875,0.862548828125,-0.2593994140625,1.85394287109375,-0.06866455078125,65.6463623046875,55.7769775390625,4.0374755859375
-0.56396484375,-0.15625,0.864013671875,-0.3509521484375,2.13623046875,-0.30517578125,65.6463623046875,55.7769775390625,4.0374755859375
-0.565185546875,-0.154052734375,0.857666015625,-0.244140625,1.54876708984375,-0.03814697265625,66.094970703125,55.328369140625,3.5888671875
-0.580810546875,-0.154296875,0.860595703125,-0.28228759765625,3.7689208984375,1.93023681640625,66.5435791015625,54.8797607421875,4.3365478515625
-0.580322265625,-0.1494140625,0.86328125,-0.31280517578125,2.03704833984375,-1.94549560546875,65.496826171875,56.82373046875,2.99072265625
-0.5654296875,-0.152099609375,0.87451171875,-0.23651123046875,0.0762939453125,-1.861572265625,66.693115234375,56.524658203125,4.78515625
-0.580322265625,-0.151123046875,0.853515625,-0.54931640625,2.06756591796875,-0.4730224609375,66.693115234375,55.926513671875,4.486083984375
-0.58349609375,-0.152587890625,0.84521484375,-0.38909912109375,2.11334228515625,-0.28228759765625,65.9454345703125,56.6741943359375,4.6356201171875
-0.57763671875,-0.15234375,0.855712890625,-0.35858154296875,1.82342529296875,-0.2288818359375,66.5435791015625,56.3751220703125,4.6356201171875
-0.58056640625,-0.15087890625,0.8447265625,-0.51116943359375,1.83868408203125,-0.335693359375,64.7491455078125,56.3751220703125,4.3365478515625
-0.564697265625,-0.149658203125,0.84619140625,-0.48828125,2.2125244140625,-0.32806396484375,65.6463623046875,56.9732666015625,3.7384033203125
-0.566162109375,-0.15283203125,0.857177734375,-0.37384033203125,2.17437744140625,-0.0152587890625,65.6463623046875,58.1695556640625,4.3365478515625
-0.5927734375,-0.152587890625,0.862548828125,-0.37384033203125,2.1209716796875,-0.16021728515625,66.8426513671875,55.4779052734375,5.8319091796875
-0.593505859375,-0.153076171875,0.862548828125,-0.52642822265625,2.3193359375,-0.28228759765625,66.39404296875,56.2255859375,3.887939453125
-0.577392578125,-0.15283203125,0.859619140625,-0.51116943359375,2.044677734375,0.030517578125,66.693115234375,56.2255859375,4.78515625
-0.57958984375,-0.14111328125,0.860595703125,-0.38909912109375,2.29644775390625,-0.2899169921875,64.599609375,56.524658203125,2.99072265625
-0.57958984375,-0.150390625,0.862548828125,-0.29754638671875,3.86810302734375,-0.23651123046875,66.39404296875,56.82373046875,3.5888671875
-0.575927734375,-0.151611328125,0.845947265625,-0.28228759765625,2.2430419921875,-1.922607421875,65.3472900390625,56.6741943359375,3.7384033203125
-0.578857421875,-0.150146484375,0.85986328125,-0.5340576171875,3.83758544921875,-0.09918212890625,65.7958984375,56.82373046875,5.084228515625
-0.58203125,-0.151611328125,0.859375,-0.34332275390625,2.13623046875,-0.2593994140625,66.39404296875,55.029296875,3.5888671875
-0.578857421875,-0.1494140625,0.857177734375,-0.3204345703125,2.11334228515625,-0.26702880859375,66.693115234375,56.82373046875,4.18701171875
-0.5927734375,-0.153564453125,0.863525390625,-0.42724609375,2.227783203125,-0.23651123046875,65.496826171875,56.524658203125,3.289794921875
-0.580810546875,-0.149169921875,0.860107421875,-0.22125244140625,2.25830078125,-0.274658203125,65.3472900390625,55.4779052734375,4.3365478515625
-0.59228515625,-0.1533203125,0.863525390625,-0.19073486328125,3.83758544921875,-0.20599365234375,65.9454345703125,56.0760498046875,5.2337646484375
-0.59326171875,-0.1533203125,0.87255859375,-0.1373291015625,2.044677734375,-0.4119873046875,66.2445068359375,56.9732666015625,4.0374755859375
-0.579345703125,-0.15380859375,0.860107421875,-0.244140625,0.0,-0.02288818359375,65.19775390625,56.82373046875,4.18701171875
-0.577880859375,-0.1513671875,0.8603515625,-0.38909912109375,3.7689208984375,-0.1678466796875,65.0482177734375,56.9732666015625,3.7384033203125
-0.5791015625,-0.15576171875,0.870849609375,-0.42724609375,2.08282470703125,0.091552734375,65.496826171875,55.926513671875,2.99072265625
-0.582275390625,-0.151611328125,0.873779296875,-0.28228759765625,2.166748046875,0.05340576171875,66.094970703125,55.926513671875,2.691650390625
-0.58056640625,-0.15283203125,0.8603515625,-0.14495849609375,2.13623046875,-0.1373291015625,66.094970703125,55.926513671875,2.691650390625
-0.580810546875,-0.15283203125,0.853759765625,-0.4730224609375,2.3193359375,1.83868408203125,65.19775390625,55.926513671875,3.887939453125
-0.56494140625,-0.150634765625,0.85888671875,-0.17547607421875,2.0294189453125,-0.20599365234375,65.9454345703125,56.0760498046875,5.5328369140625
-0.580322265625,-0.14990234375,0.865478515625,-0.3662109375,2.26593017578125,-0.00762939453125,65.7958984375,55.029296875,4.18701171875
-0.58154296875,-0.15234375,0.857421875,-0.2899169921875,2.1209716796875,-0.35858154296875,66.8426513671875,56.6741943359375,4.0374755859375
-0.5927734375,-0.1513671875,0.845703125,-0.22125244140625,2.03704833984375,-0.11444091796875,66.2445068359375,56.3751220703125,5.5328369140625
-0.5791015625,-0.15283203125,0.846435546875,-0.32806396484375,2.25067138671875,-0.17547607421875,65.3472900390625,57.2723388671875,4.6356201171875
-0.57763671875,-0.15283203125,0.859619140625,-0.26702880859375,2.13623046875,0.02288818359375,65.3472900390625,57.2723388671875,4.6356201171875
-0.58154296875,-0.15283203125,0.86328125,-0.14495849609375,1.80816650390625,-0.1220703125,65.3472900390625,57.2723388671875,4.6356201171875
-0.577880859375,-0.153564453125,0.862060546875,-0.06103515625,2.14385986328125,0.0,65.3472900390625,57.2723388671875,4.6356201171875
-0.57958984375,-0.155517578125,0.862548828125,-0.06103515625,1.983642578125,-0.274658203125,64.4500732421875,56.6741943359375,4.0374755859375
-0.578857421875,-0.1533203125,0.860595703125,-0.1678466796875,0.1068115234375,-1.9073486328125,66.094970703125,57.421875,4.78515625
-0.59375,-0.153076171875,0.858154296875,-0.35858154296875,1.93023681640625,-0.18310546875,65.7958984375,55.926513671875,4.486083984375
-0.593505859375,-0.1533203125,0.87158203125,-0.3814697265625,2.12860107421875,-0.1220703125,66.094970703125,56.2255859375,4.18701171875
-0.59033203125,-0.151123046875,0.859375,-0.3814697265625,2.1820068359375,-0.25177001953125,65.6463623046875,56.0760498046875,3.7384033203125
-0.578369140625,-0.154541015625,0.856201171875,-0.2288818359375,2.23541259765625,-0.091552734375,65.7958984375,56.524658203125,3.289794921875
-0.57958984375,-0.153564453125,0.86279296875,-0.5035400390625,2.1209716796875,-0.0457763671875,66.094970703125,56.2255859375,5.682373046875
-0.578125,-0.150390625,0.857666015625,-0.26702880859375,2.25067138671875,-0.34332275390625,66.8426513671875,55.4779052734375,3.4393310546875
-0.566650390625,-0.15478515625,0.861083984375,-0.274658203125,2.23541259765625,-0.19073486328125,66.39404296875,56.82373046875,3.887939453125
-0.577392578125,-0.152099609375,0.845703125,-0.2593994140625,1.99127197265625,-0.19073486328125,65.19775390625,55.926513671875,3.5888671875
-0.564208984375,-0.15283203125,0.869384765625,-0.32806396484375,1.9378662109375,-0.08392333984375,66.5435791015625,56.6741943359375,3.7384033203125
-0.575439453125,-0.15771484375,0.85693359375,-0.3204345703125,1.77001953125,-0.2288818359375,66.2445068359375,56.9732666015625,3.1402587890625
-0.58203125,-0.150634765625,0.856201171875,-0.26702880859375,1.50299072265625,-0.42724609375,67.4407958984375,55.7769775390625,3.7384033203125
-0.579833984375,-0.1533203125,0.8583984375,-0.2593994140625,1.83868408203125,-0.3662109375,64.599609375,56.524658203125,4.18701171875
-0.580322265625,-0.15234375,0.87451171875,-0.54168701171875,2.0751953125,-0.457763671875,65.7958984375,55.62744140625,3.5888671875
-0.583251953125,-0.150146484375,0.86572265625,-0.34332275390625,2.471923828125,-0.213623046875,65.9454345703125,54.5806884765625,3.4393310546875
-0.592529296875,-0.17041015625,0.84375,-0.2593994140625,2.26593017578125,-0.02288818359375,66.693115234375,56.82373046875,3.887939453125
-0.5791015625,-0.149658203125,0.87353515625,-0.3814697265625,2.62451171875,-0.3662109375,65.6463623046875,56.0760498046875,4.0374755859375
-0.578857421875,-0.15234375,0.86376953125,-0.20599365234375,1.9683837890625,-0.31280517578125,65.19775390625,56.2255859375,4.486083984375
-0.59375,-0.152099609375,0.856201171875,-0.38909912109375,2.40325927734375,0.091552734375,65.496826171875,55.62744140625,4.486083984375
-0.593505859375,-0.152099609375,0.860107421875,-0.22125244140625,1.96075439453125,-0.49591064453125,65.3472900390625,56.9732666015625,4.9346923828125
-0.5634765625,-0.15283203125,0.85888671875,-0.12969970703125,3.84521484375,-0.12969970703125,65.0482177734375,56.6741943359375,4.3365478515625
-0.5751953125,-0.151611328125,0.86083984375,-0.396728515625,0.02288818359375,-0.2593994140625,65.3472900390625,55.1788330078125,4.3365478515625
-0.57958984375,-0.150390625,0.8583984375,-0.3814697265625,3.8909912109375,-0.40435791015625,64.4500732421875,56.0760498046875,4.0374755859375
-0.578369140625,-0.15283203125,0.845703125,-0.17547607421875,1.97601318359375,-0.20599365234375,66.693115234375,56.2255859375,4.486083984375
-0.562744140625,-0.1494140625,0.8701171875,-0.22125244140625,2.26593017578125,0.23651123046875,65.9454345703125,56.0760498046875,4.3365478515625
-0.580078125,-0.16796875,0.85888671875,-0.37384033203125,2.26593017578125,-0.32806396484375,66.8426513671875,56.3751220703125,4.0374755859375
-0.5791015625,-0.15673828125,0.8603515625,-0.1983642578125,2.20489501953125,-1.8310546875,66.693115234375,56.524658203125,3.289794921875
-0.579833984375,-0.15283203125,0.857666015625,-0.26702880859375,2.13623046875,-0.16021728515625,64.4500732421875,56.0760498046875,3.7384033203125
-0.593017578125,-0.142822265625,0.863037109375,-0.1068115234375,0.0457763671875,0.05340576171875,66.2445068359375,56.0760498046875,4.3365478515625
-0.584228515625,-0.151123046875,0.8740234375,-1.91497802734375,3.79180908203125,1.86920166015625,66.39404296875,57.122802734375,5.084228515625
-0.592041015625,-0.151611328125,0.862548828125,-0.31280517578125,0.25177001953125,-0.32806396484375,66.094970703125,56.82373046875,4.486083984375
-0.58203125,-0.14990234375,0.845947265625,-0.1068115234375,3.875732421875,-0.2288818359375,66.5435791015625,57.2723388671875,4.9346923828125
-0.583740234375,-0.15283203125,0.863525390625,-0.5035400390625,3.76129150390625,-1.9073486328125,65.6463623046875,56.9732666015625,4.0374755859375
-0.583740234375,-0.150390625,0.87060546875,-0.30517578125,1.983642578125,-0.1983642578125,65.9454345703125,56.3751220703125,3.4393310546875
-0.57861328125,-0.155029296875,0.85791015625,-0.25177001953125,1.86920166015625,1.88446044921875,65.9454345703125,56.3751220703125,3.4393310546875
-0.593505859375,-0.15234375,0.85986328125,-0.4119873046875,0.00762939453125,0.09918212890625,65.9454345703125,56.3751220703125,3.4393310546875
-0.57861328125,-0.15234375,0.857421875,-0.09918212890625,2.15911865234375,-1.85394287109375,64.599609375,56.524658203125,4.18701171875
-0.5849609375,-0.148681640625,0.860595703125,-0.23651123046875,2.14385986328125,-0.0457763671875,65.3472900390625,55.7769775390625,4.0374755859375
-0.57763671875,-0.153076171875,0.857666015625,-0.11444091796875,1.89208984375,-0.08392333984375,66.094970703125,55.926513671875,4.486083984375
-0.59326171875,-0.1494140625,0.861572265625,-0.32806396484375,1.96075439453125,-0.34332275390625,66.39404296875,55.926513671875,3.289794921875
-0.5810546875,-0.14990234375,0.857421875,-0.60272216796875,1.8157958984375,-0.244140625,65.7958984375,55.926513671875,4.18701171875
-0.57861328125,-0.145263671875,0.86083984375,-0.89263916015625,1.50299072265625,-0.34332275390625,65.9454345703125,55.1788330078125,4.9346923828125
-0.586669921875,-0.15771484375,0.857421875,-0.732421875,1.30462646484375,0.2288818359375,66.094970703125,55.328369140625,4.18701171875
-0.580322265625,-0.16015625,0.857666015625,-0.6561279296875,1.47247314453125,-0.1220703125,65.496826171875,57.421875,2.99072265625
-0.578857421875,-0.129638671875,0.8623046875,-0.6561279296875,1.129150390625,1.0528564453125,66.5435791015625,56.6741943359375,3.4393310546875
-0.587158203125,-0.150146484375,0.872802734375,1.4801025390625,1.94549560546875,-0.16021728515625,66.094970703125,56.82373046875,3.887939453125
-0.570556640625,-0.154296875,0.8642578125,0.2593994140625,1.800537109375,-1.6937255859375,66.2445068359375,56.9732666015625,5.8319091796875
-0.58056640625,-0.161376953125,0.854248046875,0.54931640625,2.2430419921875,-1.64031982421875,66.39404296875,56.524658203125,4.486083984375
-0.586181640625,-0.167236328125,0.85400390625,1.02996826171875,1.21307373046875,-0.6103515625,65.19775390625,55.328369140625,2.99072265625
-0.582763671875,-0.165771484375,0.8486328125,1.6632080078125,0.0762939453125,-0.518798828125,65.3472900390625,56.3751220703125,4.3365478515625
-0.57275390625,-0.14404296875,0.86376953125,2.0751953125,1.39617919921875,-0.74005126953125,64.7491455078125,56.3751220703125,3.7384033203125
-0.589111328125,-0.151611328125,0.865478515625,2.1820068359375,1.68609619140625,-0.457763671875,66.2445068359375,56.3751220703125,4.3365478515625
-0.57861328125,-0.1552734375,0.86669921875,2.50244140625,1.678466796875,-0.54168701171875,65.7958984375,54.730224609375,4.78515625
-0.574951171875,-0.16015625,0.87060546875,2.9144287109375,1.8310546875,-1.91497802734375,65.496826171875,55.029296875,4.486083984375
-0.57666015625,-0.163818359375,0.84423828125,2.70843505859375,1.7547607421875,-1.8463134765625,66.5435791015625,56.6741943359375,4.3365478515625
-0.56298828125,-0.1494140625,0.864013671875,2.4871826171875,2.20489501953125,1.85394287109375,66.5435791015625,55.4779052734375,4.0374755859375
-0.564208984375,-0.14599609375,0.85888671875,1.99127197265625,1.3885498046875,0.2288818359375,66.5435791015625,56.6741943359375,4.6356201171875
-0.581787109375,-0.144287109375,0.869873046875,1.861572265625,0.87738037109375,1.9378662109375,66.8426513671875,55.4779052734375,3.4393310546875
-0.5927734375,-0.14794921875,0.866455078125,1.16729736328125,1.02996826171875,0.213623046875,66.2445068359375,56.6741943359375,3.1402587890625
-0.578125,-0.15869140625,0.873291015625,1.12152099609375,1.25885009765625,0.732421875,66.094970703125,54.730224609375,4.78515625
-0.591552734375,-0.14208984375,0.8681640625,1.5411376953125,1.5106201171875,0.29754638671875,65.0482177734375,56.3751220703125,4.3365478515625
-0.576904296875,-0.14453125,0.869873046875,1.54876708984375,2.1209716796875,0.335693359375,65.496826171875,56.82373046875,3.5888671875
-0.576171875,-0.13818359375,0.87109375,1.42669677734375,3.07464599609375,-0.0762939453125,66.39404296875,55.926513671875,5.084228515625
-0.563720703125,-0.15087890625,0.871826171875,1.3580322265625,2.044677734375,1.9073486328125,66.5435791015625,56.9732666015625,5.2337646484375
-0.578857421875,-0.16064453125,0.86328125,0.60272216796875,5.74493408203125,0.41961669921875,65.19775390625,55.926513671875,4.18701171875
-0.56298828125,-0.159423828125,0.873291015625,-0.06866455078125,6.03485107421875,0.9307861328125,66.094970703125,56.82373046875,4.486083984375
-0.576171875,-0.155029296875,0.900634765625,-12.9852294921875,0.17547607421875,2.38037109375,66.2445068359375,56.3751220703125,4.3365478515625
-0.563232421875,-0.187744140625,0.9033203125,-11.474609375,12.68768310546875,6.29425048828125,64.898681640625,55.62744140625,4.18701171875
-0.53662109375,-0.24072265625,0.904296875,-11.932373046875,24.23095703125,12.51220703125,66.5435791015625,56.0760498046875,3.4393310546875
-0.5693359375,-0.23828125,0.960205078125,-11.61956787109375,41.7327880859375,24.200439453125,64.898681640625,55.926513671875,3.289794921875
-0.732421875,-0.256591796875,1.0830078125,-5.8746337890625,55.15289306640625,39.37530517578125,66.39404296875,57.421875,2.691650390625
-0.71728515625,-0.26318359375,1.14599609375,-3.7689208984375,63.27056884765625,47.18780517578125,64.00146484375,58.02001953125,2.093505859375
-0.84033203125,-0.55029296875,1.13037109375,17.9901123046875,67.28363037109375,56.060791015625,66.693115234375,57.720947265625,1.1962890625
-0.870849609375,-0.44140625,1.154296875,56.4117431640625,70.18280029296875,72.174072265625,64.7491455078125,57.8704833984375,3.1402587890625
-1.160888671875,-0.544189453125,1.104736328125,74.91302490234375,51.7425537109375,36.65924072265625,63.8519287109375,57.5714111328125,2.2430419921875
-1.04931640625,-0.2744140625,1.074951171875,35.400390625,71.96807861328125,-45.70770263671875,64.1510009765625,57.8704833984375,1.6448974609375
-0.94970703125,-0.371826171875,1.168212890625,34.9578857421875,73.84490966796875,-27.2064208984375,64.4500732421875,57.2723388671875,1.0467529296875
-0.836181640625,-0.008544921875,1.234375,23.35357666015625,78.02581787109375,10.99395751953125,65.3472900390625,58.4686279296875,0.7476806640625
-0.978515625,0.08837890625,1.419677734375,-21.82769775390625,66.95556640625,57.0526123046875,66.2445068359375,57.2723388671875,0.1495361328125
-1.085693359375,-0.16357421875,1.434814453125,-36.17095947265625,79.78057861328125,90.52276611328125,63.104248046875,56.524658203125,-0.299072265625
-1.0615234375,-0.28076171875,1.306396484375,-33.4930419921875,56.5338134765625,97.35870361328125,62.9547119140625,59.0667724609375,0.4486083984375
-1.0341796875,-0.348876953125,1.131591796875,-33.68377685546875,45.43304443359375,68.73321533203125,61.309814453125,58.6181640625,-1.79443359375
-1.004638671875,-0.305908203125,1.202880859375,-13.1378173828125,84.48028564453125,32.8369140625,61.309814453125,58.6181640625,-1.79443359375
-1.037109375,-0.2177734375,1.111572265625,-14.1754150390625,90.576171875,19.256591796875,61.309814453125,58.6181640625,-1.79443359375
-1.13916015625,-0.1640625,1.107177734375,-25.90179443359375,112.5335693359375,5.51605224609375,61.309814453125,58.6181640625,-1.79443359375
-1.134521484375,-0.106689453125,1.075927734375,-18.19610595703125,93.63555908203125,2.227783203125,60.41259765625,58.319091796875,-2.99072265625
-1.070556640625,0.007080078125,1.0791015625,-8.29315185546875,68.88580322265625,7.69805908203125,61.907958984375,58.6181640625,-4.78515625
-1.095703125,0.1044921875,1.025634765625,-1.39617919921875,41.99981689453125,10.49041748046875,61.4593505859375,58.7677001953125,-4.0374755859375
-1.05859375,0.096923828125,0.90087890625,-10.53619384765625,2.43377685546875,20.28656005859375,61.309814453125,57.421875,-4.78515625
-0.942138671875,0.07958984375,0.83984375,1.73187255859375,10.7421875,15.045166015625,60.41259765625,58.02001953125,-3.289794921875
-0.977294921875,-0.03759765625,0.760009765625,-5.14984130859375,-11.22283935546875,9.39178466796875,61.60888671875,58.02001953125,-3.887939453125
-0.799560546875,-0.104736328125,0.650634765625,-9.71221923828125,-20.1263427734375,-8.38470458984375,61.0107421875,58.02001953125,-2.691650390625
-0.64599609375,-0.009765625,0.579345703125,2.23541259765625,-11.90948486328125,-31.5093994140625,61.0107421875,59.21630859375,-2.99072265625
-0.60302734375,-0.046875,0.58740234375,2.4261474609375,-15.46478271484375,-52.734375,62.0574951171875,57.5714111328125,-4.0374755859375
-0.562255859375,0.037353515625,0.587646484375,17.0440673828125,-23.68927001953125,-56.05316162109375,63.2537841796875,56.6741943359375,-4.0374755859375
-0.4951171875,0.120849609375,0.49072265625,21.88873291015625,-36.56768798828125,-42.938232421875,61.7584228515625,56.3751220703125,-2.5421142578125
-0.479248046875,0.122314453125,0.37548828125,19.41680908203125,-48.82049560546875,-36.24725341796875,63.5528564453125,56.9732666015625,-0.4486083984375
-0.4951171875,0.069091796875,0.365234375,10.27679443359375,-49.62921142578125,-37.65869140625,63.702392578125,55.62744140625,-0.59814453125
-0.515869140625,0.017333984375,0.346923828125,-1.28173828125,-51.4068603515625,-40.0543212890625,64.4500732421875,56.6741943359375,1.0467529296875
-0.6376953125,0.025390625,0.262939453125,-0.43487548828125,-47.03521728515625,-46.295166015625,64.7491455078125,55.7769775390625,1.3458251953125
-0.6259765625,0.0849609375,0.184326171875,-9.8419189453125,-61.0198974609375,-35.97259521484375,64.898681640625,56.2255859375,1.1962890625
-0.55615234375,0.152099609375,0.01416015625,-0.1068115234375,-60.211181640625,-19.76776123046875,65.0482177734375,56.3751220703125,1.0467529296875
-0.54638671875,0.281005859375,-0.128173828125,-10.406494140625,-43.02215576171875,-5.92041015625,64.898681640625,55.926513671875,1.495361328125
-0.41650390625,0.21826171875,-0.220458984375,-6.87408447265625,-29.1748046875,-12.7716064453125,64.898681640625,55.62744140625,1.79443359375
-0.162109375,0.219482421875,-0.36083984375,-4.12750244140625,-11.505126953125,1.56402587890625,63.4033203125,56.2255859375,3.289794921875
0.001953125,0.319580078125,-0.375,-12.359619140625,18.60809326171875,14.68658447265625,63.5528564453125,56.6741943359375,3.4393310546875
0.048828125,0.33544921875,-0.363525390625,-13.46588134765625,30.82275390625,24.444580078125,64.1510009765625,56.9732666015625,4.6356201171875
0.099609375,0.3232421875,-0.37255859375,-11.9171142578125,47.55401611328125,37.43743896484375,64.898681640625,56.2255859375,4.486083984375
0.072021484375,0.322509765625,-0.275634765625,-15.29693603515625,66.0552978515625,47.73712158203125,63.104248046875,57.421875,2.392578125
0.0595703125,0.237060546875,-0.244873046875,-8.941650390625,81.24542236328125,50.323486328125,64.4500732421875,57.5714111328125,2.2430419921875
0.0625,0.146240234375,-0.017578125,-17.03643798828125,89.01214599609375,40.99273681640625,63.2537841796875,58.1695556640625,1.3458251953125
-0.091064453125,0.160888671875,-0.006103515625,-9.39178466796875,109.64202880859375,29.42657470703125,63.5528564453125,58.1695556640625,-0.7476806640625
-0.131591796875,0.191162109375,0.00390625,-14.57977294921875,118.3624267578125,27.10723876953125,63.5528564453125,58.1695556640625,-0.7476806640625
-0.19189453125,0.165771484375,0.004150390625,-30.55572509765625,108.71124267578125,28.564453125,62.80517578125,57.122802734375,-0.897216796875
-0.22998046875,0.079345703125,0.152587890625,-20.904541015625,103.81317138671875,33.9813232421875,61.907958984375,56.2255859375,-2.392578125
-0.35498046875,0.071044921875,0.203857421875,-24.68109130859375,91.69769287109375,46.56982421875,62.506103515625,55.926513671875,-2.093505859375
-0.375244140625,0.169677734375,0.35986328125,-15.12908935546875,76.568603515625,41.55731201171875,63.104248046875,56.524658203125,-3.5888671875
-0.5126953125,0.1220703125,0.458251953125,-17.00592041015625,60.5010986328125,26.5960693359375,60.8612060546875,57.2723388671875,-5.5328369140625
-0.641845703125,0.08154296875,0.5302734375,-5.39398193359375,43.609619140625,6.9122314453125,61.4593505859375,57.2723388671875,-4.6356201171875
-0.81591796875,0.08984375,0.613525390625,2.8228759765625,23.61297607421875,-14.09149169921875,61.309814453125,56.524658203125,-4.486083984375
-0.948486328125,-0.06298828125,0.715087890625,15.95306396484375,6.81304931640625,-24.13177490234375,61.309814453125,56.2255859375,-5.9814453125
-1.079833984375,-0.009033203125,0.7412109375,32.81402587890625,-17.29583740234375,-25.18463134765625,61.309814453125,55.328369140625,-5.38330078125
-1.0166015625,-0.064208984375,0.72998046875,40.22979736328125,-40.863037109375,-20.50018310546875,61.1602783203125,54.8797607421875,-5.2337646484375
-1.158935546875,-0.09375,0.819091796875,44.02923583984375,-41.31317138671875,-27.740478515625,62.506103515625,56.82373046875,-5.084228515625
-1.431640625,-0.271240234375,0.9111328125,44.33441162109375,-48.553466796875,-28.01513671875,63.702392578125,55.029296875,-4.78515625
-1.593017578125,-0.502197265625,1.005126953125,52.13165283203125,-58.5479736328125,-57.159423828125,64.7491455078125,55.7769775390625,-4.6356201171875
-1.39306640625,-0.5615234375,0.920654296875,71.47979736328125,-66.802978515625,-84.92279052734375,63.5528564453125,55.4779052734375,-2.8411865234375
-1.083740234375,-0.311767578125,1.035400390625,59.02862548828125,-73.35662841796875,-89.6148681640625,64.1510009765625,55.4779052734375,-2.2430419921875
-1.261474609375,-0.258544921875,1.045166015625,31.7230224609375,-77.41546630859375,-67.42095947265625,64.599609375,54.132080078125,0.0
-1.1904296875,-0.14892578125,1.10107421875,1.09100341796875,-55.8624267578125,-19.7601318359375,64.599609375,53.533935546875,0.0
-1.2978515625,0.0078125,1.0927734375,-42.22869873046875,-52.42919921875,6.53076171875,65.3472900390625,53.9825439453125,0.1495361328125
-1.080322265625,-0.19482421875,1.038818359375,-52.215576171875,-68.206787109375,32.196044921875,66.094970703125,53.8330078125,-0.59814453125
-0.841796875,-0.26123046875,1.0205078125,-39.398193359375,-57.06024169921875,26.61895751953125,65.0482177734375,54.8797607421875,-1.6448974609375
-1.45654296875,-0.77197265625,1.008056640625,10.29205322265625,-55.80902099609375,-31.13555908203125,64.4500732421875,55.1788330078125,-0.7476806640625
-0.991943359375,-0.053466796875,1.0283203125,26.30615234375,-40.1611328125,-20.32470703125,65.6463623046875,53.9825439453125,-1.0467529296875
-0.60498046875,-0.0009765625,1.10546875,-14.93072509765625,-74.4781494140625,-25.70343017578125,65.7958984375,54.132080078125,0.897216796875
-0.611328125,-0.410400390625,1.25146484375,-40.496826171875,-65.85693359375,-61.97357177734375,65.7958984375,54.132080078125,0.299072265625
-0.634521484375,-0.233154296875,0.857421875,-48.75946044921875,-43.32733154296875,-25.08544921875,65.3472900390625,53.3843994140625,-1.0467529296875
-0.9296875,-0.22998046875,0.88671875,-20.93505859375,-49.3011474609375,-21.8963623046875,65.496826171875,52.935791015625,0.299072265625
-0.609619140625,-0.23193359375,0.969482421875,-24.139404296875,-20.63751220703125,-23.7274169921875,65.496826171875,53.23486328125,0.59814453125
-0.537353515625,-0.32666015625,0.966064453125,-22.91107177734375,-33.0352783203125,-20.57647705078125,66.39404296875,52.337646484375,0.59814453125
-0.73291015625,-0.338623046875,0.849365234375,0.03814697265625,-31.9061279296875,-17.14324951171875,65.7958984375,52.63671875,0.0
-0.746826171875,0.1123046875,0.845947265625,11.7340087890625,-36.651611328125,-18.463134765625,66.39404296875,52.337646484375,1.1962890625
-0.63671875,-0.228515625,0.9140625,14.91546630859375,-34.21783447265625,-13.19122314453125,66.094970703125,53.533935546875,0.59814453125
-0.618408203125,-0.215087890625,0.923095703125,10.50567626953125,-32.63092041015625,-13.20648193359375,66.5435791015625,53.0853271484375,0.1495361328125
-0.533203125,-0.2041015625,0.9375,7.0343017578125,-23.33831787109375,-9.8419189453125,67.59033203125,51.739501953125,0.897216796875
-0.5087890625,-0.199951171875,0.9248046875,3.01361083984375,-9.55963134765625,-11.36016845703125,66.5435791015625,51.2908935546875,1.9439697265625
-0.55517578125,-0.1796875,0.894287109375,0.9918212890625,-3.082275390625,-11.42120361328125,66.9921875,53.23486328125,1.495361328125
-0.557861328125,-0.20703125,0.8349609375,-0.95367431640625,3.5247802734375,-11.505126953125,68.0389404296875,52.4871826171875,1.3458251953125
-0.608154296875,-0.240966796875,0.863037109375,0.6561279296875,-9.05609130859375,-7.5531005859375,66.5435791015625,53.0853271484375,0.4486083984375
-0.56787109375,-0.270751953125,0.842529296875,5.40924072265625,3.84521484375,-6.43157958984375,66.8426513671875,52.7862548828125,1.0467529296875
-0.56884765625,-0.270263671875,0.836181640625,4.547119140625,4.29534912109375,-2.41851806640625,66.693115234375,52.935791015625,0.299072265625
-0.582763671875,-0.200927734375,0.8427734375,2.61688232421875,6.66046142578125,-2.69317626953125,67.7398681640625,50.9918212890625,0.7476806640625
-0.59326171875,-0.167236328125,0.90283203125,1.60980224609375,-0.1983642578125,-3.9520263671875,66.8426513671875,52.4871826171875,1.9439697265625
-0.570068359375,-0.1015625,0.900146484375,-8.58306884765625,-2.5177001953125,-7.62939453125,66.5435791015625,52.7862548828125,1.6448974609375
-0.56982421875,-0.22998046875,0.85302734375,-17.63153076171875,1.6632080078125,-6.683349609375,67.291259765625,52.63671875,-0.299072265625
-0.570068359375,-0.28857421875,0.8408203125,-21.36993408203125,6.2255859375,-4.84466552734375,67.889404296875,51.739501953125,0.0
-0.62158203125,-0.293701171875,0.79150390625,-18.0511474609375,1.18255615234375,-3.3416748046875,68.3380126953125,51.5899658203125,0.1495361328125
-0.6083984375,-0.188720703125,0.853515625,-16.845703125,-2.777099609375,-4.15802001953125,67.291259765625,51.739501953125,-0.897216796875
-0.572021484375,-0.2392578125,0.85302734375,-13.9923095703125,-5.66864013671875,-5.706787109375,68.3380126953125,50.3936767578125,-0.7476806640625
-0.566650390625,-0.207275390625,0.822509765625,-12.542724609375,2.89154052734375,-4.08172607421875,68.0389404296875,50.6927490234375,-0.7476806640625
-0.6318359375,-0.2099609375,0.890380859375,-14.86968994140625,6.8206787109375,-4.2266845703125,66.9921875,51.141357421875,-1.79443359375
-0.567138671875,-0.25244140625,0.8330078125,-12.6800537109375,3.34930419921875,-1.57928466796875,67.1417236328125,50.9918212890625,-1.3458251953125
-0.603515625,-0.351318359375,0.8056640625,-7.1258544921875,-5.6915283203125,2.25067138671875,68.1884765625,51.141357421875,-3.289794921875
-0.58447265625,-0.28076171875,0.818603515625,-1.47247314453125,-3.2196044921875,3.33404541015625,68.487548828125,52.03857421875,-0.897216796875
-0.591552734375,-0.169189453125,0.8701171875,1.2664794921875,1.85394287109375,3.07464599609375,67.59033203125,51.4404296875,-2.093505859375
-0.568115234375,-0.21923828125,0.837646484375,1.8768310546875,-3.66973876953125,4.913330078125,68.1884765625,51.141357421875,-1.79443359375
-0.58056640625,-0.280517578125,0.822509765625,5.7525634765625,-4.9591064453125,8.38470458984375,66.094970703125,53.23486328125,-0.299072265625
-0.58154296875,-0.31787109375,0.826904296875,12.82501220703125,-4.3487548828125,11.871337890625,65.19775390625,51.141357421875,-1.1962890625
-0.578369140625,-0.311767578125,0.817138671875,15.6097412109375,-5.95855712890625,11.8560791015625,65.19775390625,51.141357421875,-1.1962890625
-0.58154296875,-0.268310546875,0.830078125,18.9056396484375,-4.02069091796875,14.4195556640625,65.19775390625,51.141357421875,-1.1962890625
-0.58544921875,-0.293212890625,0.82861328125,23.193359375,-2.99835205078125,15.0299072265625,66.39404296875,52.03857421875,-0.59814453125
-0.566650390625,-0.23095703125,0.848388671875,25.08544921875,-4.20379638671875,15.08331298828125,67.889404296875,52.03857421875,-0.59814453125
-0.565673828125,-0.23095703125,0.864013671875,26.83258056640625,-9.7198486328125,12.7410888671875,67.4407958984375,52.1881103515625,-0.4486083984375
-0.576904296875,-0.145751953125,0.8701171875,26.02386474609375,-9.01031494140625,11.16180419921875,68.0389404296875,53.3843994140625,1.0467529296875
-0.58056640625,-0.185791015625,0.864501953125,23.65875244140625,-11.29913330078125,9.6282958984375,66.39404296875,54.43115234375,0.897216796875
-0.57373046875,-0.146728515625,0.85888671875,22.36175537109375,-10.97869873046875,8.11767578125,66.39404296875,51.739501953125,2.392578125
-0.57080078125,-0.143798828125,0.846435546875,20.721435546875,-12.41302490234375,6.38580322265625,66.39404296875,51.739501953125,2.392578125
-0.583251953125,-0.165771484375,0.8583984375,16.7694091796875,-13.8702392578125,5.9356689453125,67.291259765625,53.533935546875,2.691650390625
-0.544921875,-0.067138671875,0.880859375,8.75091552734375,-12.3443603515625,3.1280517578125,66.693115234375,53.23486328125,2.093505859375
-0.552490234375,-0.132080078125,0.880126953125,0.3204345703125,-11.16943359375,1.89971923828125,66.39404296875,53.23486328125,3.5888671875
-0.544189453125,-0.127685546875,0.889892578125,-3.80706787109375,-8.06427001953125,-0.3662109375,67.4407958984375,53.3843994140625,2.2430419921875
-0.55029296875,-0.20263671875,0.8525390625,-1.0528564453125,-8.056640625,0.63323974609375,67.59033203125,53.533935546875,2.691650390625
-0.551513671875,-0.18310546875,0.880126953125,-0.61798095703125,-9.39178466796875,2.13623046875,66.693115234375,53.23486328125,2.093505859375
-0.572265625,-0.1416015625,0.877685546875,-0.37384033203125,-11.39068603515625,3.2501220703125,66.8426513671875,55.1788330078125,1.6448974609375
-0.490966796875,-0.18359375,0.884765625,-0.946044921875,-7.354736328125,1.30462646484375,66.5435791015625,54.2816162109375,1.3458251953125
-0.514404296875,-0.20751953125,0.87548828125,-2.777099609375,-1.0528564453125,0.5340576171875,67.1417236328125,52.7862548828125,3.1402587890625
-0.515380859375,-0.230224609375,0.86865234375,-3.86810302734375,-0.48828125,3.2501220703125,66.9921875,53.533935546875,3.289794921875
-0.5244140625,-0.1884765625,0.888427734375,-0.1220703125,-2.75421142578125,4.41741943359375,66.9921875,52.935791015625,2.99072265625
-0.546630859375,-0.18310546875,0.918212890625,1.89971923828125,-4.7607421875,4.61578369140625,66.5435791015625,53.3843994140625,1.3458251953125
-0.53125,-0.200927734375,0.873046875,2.9296875,-3.27301025390625,4.302978515625,67.1417236328125,53.3843994140625,1.9439697265625
-0.538330078125,-0.216064453125,0.88232421875,3.01361083984375,0.57220458984375,3.692626953125,65.9454345703125,52.4871826171875,2.5421142578125
-0.5302734375,-0.177001953125,0.864990234375,2.4566650390625,-1.36566162109375,1.3885498046875,67.291259765625,52.63671875,2.093505859375
-0.50537109375,-0.1572265625,0.886474609375,3.83758544921875,-3.84521484375,0.18310546875,67.59033203125,52.935791015625,2.392578125
-0.484619140625,-0.170654296875,0.88818359375,4.11224365234375,-1.33514404296875,-1.5411376953125,65.7958984375,53.8330078125,3.289794921875
-0.50830078125,-0.174072265625,0.89697265625,5.53131103515625,6.76727294921875,-3.173828125,66.094970703125,53.8330078125,2.99072265625
-0.541259765625,-0.18212890625,0.918212890625,1.13677978515625,13.763427734375,-5.04302978515625,67.4407958984375,53.0853271484375,2.5421142578125
-0.54541015625,-0.19580078125,0.881591796875,3.65447998046875,14.64080810546875,-4.20379638671875,67.1417236328125,53.0853271484375,4.6356201171875
-0.54443359375,-0.212646484375,0.887939453125,5.68389892578125,13.99993896484375,-4.4403076171875,66.5435791015625,54.8797607421875,2.5421142578125
-0.508544921875,-0.213623046875,0.87255859375,10.6964111328125,14.2364501953125,-4.486083984375,67.291259765625,53.8330078125,3.5888671875
-0.542724609375,-0.183349609375,0.884765625,15.533447265625,20.2789306640625,-4.6539306640625,66.8426513671875,53.6834716796875,3.7384033203125
-0.524169921875,-0.2333984375,0.865234375,24.10888671875,24.871826171875,-4.32586669921875,67.4407958984375,52.4871826171875,4.6356201171875
-0.5224609375,-0.147216796875,0.918701171875,29.1900634765625,29.541015625,-3.5247802734375,65.9454345703125,52.1881103515625,4.6356201171875
-0.56494140625,-0.116943359375,0.90673828125,24.7802734375,28.7322998046875,-2.3956298828125,66.9921875,53.533935546875,5.38330078125
-0.548095703125,-0.049072265625,0.930908203125,16.357421875,26.7486572265625,-1.89971923828125,66.8426513671875,53.0853271484375,5.2337646484375
-0.55712890625,-0.062744140625,0.923095703125,8.209228515625,30.09033203125,1.04522705078125,66.39404296875,53.23486328125,5.682373046875
-0.539794921875,-0.227294921875,1.011474609375,-3.30352783203125,34.271240234375,7.91168212890625,66.693115234375,52.63671875,6.878662109375
-0.53759765625,-0.17138671875,1.040771484375,0.91552734375,56.29730224609375,17.242431640625,66.2445068359375,54.5806884765625,6.7291259765625
-0.804931640625,-0.205322265625,1.14306640625,15.93017578125,71.319580078125,38.26904296875,66.2445068359375,53.0853271484375,5.5328369140625
-0.846435546875,-0.586669921875,1.376220703125,67.98553466796875,80.8868408203125,83.42742919921875,65.6463623046875,54.2816162109375,4.3365478515625
-1.0869140625,-0.630859375,1.433837890625,109.7564697265625,104.04205322265625,80.1849365234375,65.6463623046875,54.2816162109375,4.3365478515625
2.0,-0.091796875,1.625,64.88800048828125,109.07745361328125,28.43475341796875,65.6463623046875,54.2816162109375,4.3365478515625
2.0,0.164794921875,1.56884765625,24.3988037109375,72.723388671875,15.57159423828125,65.0482177734375,56.0760498046875,2.5421142578125
-1.8251953125,0.060791015625,1.47021484375,-14.28985595703125,211.26556396484375,15.64788818359375,63.4033203125,56.2255859375,4.78515625
-1.412841796875,-0.358154296875,1.418212890625,-9.10186767578125,195.12176513671875,38.5284423828125,64.599609375,55.328369140625,4.486083984375
-1.576904296875,-0.147216796875,1.556640625,-33.966064453125,129.85992431640625,41.29791259765625,65.3472900390625,56.0760498046875,3.1402587890625
-1.332275390625,-0.12255859375,1.659423828125,-20.1568603515625,110.37445068359375,48.4161376953125,64.1510009765625,55.1788330078125,2.8411865234375
-1.078125,0.012451171875,1.5126953125,-25.77972412109375,97.93853759765625,51.3153076171875,64.4500732421875,56.6741943359375,0.1495361328125
-0.991455078125,-0.083251953125,1.386962890625,-29.266357421875,92.96417236328125,51.239013671875,62.9547119140625,56.0760498046875,-1.0467529296875
-1.001220703125,-0.03466796875,1.27392578125,-33.111572265625,82.00836181640625,52.13165283203125,61.7584228515625,56.9732666015625,-1.9439697265625
-1.0048828125,-0.02197265625,1.1103515625,-24.932861328125,75.85906982421875,44.82269287109375,63.702392578125,55.328369140625,-3.289794921875
-0.98486328125,-0.025634765625,0.93994140625,-15.899658203125,77.85797119140625,31.02874755859375,62.506103515625,56.82373046875,-3.5888671875
-0.994140625,0.028564453125,0.837646484375,-9.21630859375,70.892333984375,11.1236572265625,62.80517578125,56.524658203125,-3.887939453125
-0.853759765625,-0.0341796875,0.640625,-4.95147705078125,37.94097900390625,3.4942626953125,62.20703125,57.122802734375,-4.18701171875
-0.753662109375,0.017578125,0.5712890625,1.708984375,13.23699951171875,-16.7388916015625,62.6556396484375,56.9732666015625,-4.3365478515625
-0.668212890625,-0.040283203125,0.5009765625,7.42340087890625,-3.13568115234375,-29.4647216796875,62.506103515625,56.524658203125,-4.18701171875
-0.601318359375,0.007568359375,0.41455078125,5.08880615234375,-13.32855224609375,-36.1175537109375,62.80517578125,55.62744140625,-2.093505859375
-0.501708984375,-0.0302734375,0.281005859375,2.8533935546875,-39.52789306640625,-39.8712158203125,63.5528564453125,55.4779052734375,-2.5421142578125
-0.500244140625,-0.02392578125,0.20654296875,0.8544921875,-42.88482666015625,-44.21234130859375,63.5528564453125,55.4779052734375,-2.5421142578125
-0.45068359375,0.02197265625,0.086181640625,-1.44195556640625,-44.3115234375,-49.18670654296875,64.00146484375,56.524658203125,-1.495361328125
-0.37548828125,0.0263671875,0.02734375,-5.92803955078125,-52.1697998046875,-50.72021484375,64.00146484375,56.82373046875,-1.79443359375
-0.347900390625,0.04345703125,0.01416015625,-4.60052490234375,-52.10113525390625,-50.54473876953125,65.19775390625,55.328369140625,-2.691650390625
-0.30810546875,0.1162109375,0.01171875,-2.4261474609375,-50.62103271484375,-49.79705810546875,64.599609375,55.029296875,-0.897216796875
-0.267578125,0.081787109375,-0.070068359375,3.387451171875,-46.07391357421875,-42.80853271484375,64.898681640625,54.730224609375,-0.59814453125
-0.238037109375,0.111572265625,-0.10986328125,-0.26702880859375,-47.2412109375,-45.40252685546875,65.9454345703125,55.1788330078125,-0.1495361328125
-0.206298828125,0.15087890625,-0.233642578125,-6.15692138671875,-41.3055419921875,-43.03741455078125,65.7958984375,55.328369140625,-0.299072265625
-0.03955078125,0.158447265625,-0.3603515625,-47.03521728515625,-68.41278076171875,-17.1661376953125,65.9454345703125,53.9825439453125,-0.1495361328125
-0.037841796875,0.43798828125,-0.323974609375,-27.80914306640625,-29.93011474609375,-10.16998291015625,65.3472900390625,53.6834716796875,-1.3458251953125
0.126953125,0.243408203125,-0.390869140625,-26.2908935546875,-15.61737060546875,0.45013427734375,66.094970703125,55.62744140625,0.299072265625
0.2138671875,0.218017578125,-0.296875,-6.49261474609375,12.8021240234375,18.18084716796875,65.0482177734375,55.1788330078125,-1.0467529296875
0.13427734375,0.2236328125,-0.259521484375,-2.54058837890625,15.93780517578125,30.5023193359375,66.8426513671875,55.1788330078125,1.3458251953125
0.034912109375,0.222900390625,-0.144287109375,-6.21795654296875,31.8603515625,28.900146484375,66.693115234375,53.8330078125,1.79443359375
0.06982421875,0.233154296875,-0.159423828125,-23.09417724609375,44.4793701171875,36.9720458984375,64.1510009765625,55.1788330078125,1.0467529296875
-0.155517578125,0.2783203125,0.047119140625,-30.96771240234375,77.64434814453125,49.58343505859375,65.0482177734375,55.7769775390625,0.4486083984375
-0.273681640625,0.28515625,0.070556640625,-47.515869140625,42.80853271484375,76.35498046875,63.8519287109375,56.0760498046875,-0.1495361328125
-0.223876953125,0.258056640625,0.14404296875,-42.41943359375,54.718017578125,87.63885498046875,63.5528564453125,56.9732666015625,-0.7476806640625
-0.24267578125,0.24755859375,0.10498046875,-42.28973388671875,59.53216552734375,92.010498046875,62.3565673828125,55.7769775390625,-1.6448974609375
-0.33251953125,0.19384765625,0.108642578125,-38.4979248046875,73.50921630859375,87.493896484375,62.3565673828125,56.3751220703125,-2.5421142578125
-0.51220703125,0.088623046875,0.033203125,-38.44451904296875,74.63836669921875,66.314697265625,62.0574951171875,57.2723388671875,-4.3365478515625
-0.46728515625,0.1259765625,0.0439453125,-38.665771484375,86.2884521484375,43.914794921875,61.309814453125,56.524658203125,-3.5888671875
-0.489013671875,0.189697265625,0.085205078125,-7.85064697265625,106.62078857421875,23.6663818359375,60.8612060546875,56.6741943359375,-5.8319091796875
-0.89306640625,0.048583984375,0.350341796875,12.8173828125,107.4981689453125,19.37103271484375,61.0107421875,56.2255859375,-6.57958984375
-1.059814453125,0.1015625,0.441162109375,15.72418212890625,82.28302001953125,13.20648193359375,61.0107421875,55.62744140625,-6.878662109375
-1.015625,0.0537109375,0.460693359375,23.88763427734375,62.591552734375,1.9989013671875,61.907958984375,56.524658203125,-7.77587890625
-1.0751953125,0.15087890625,0.4775390625,26.4892578125,48.72894287109375,-7.66754150390625,61.7584228515625,56.0760498046875,-8.2244873046875
-1.20556640625,0.10986328125,0.608154296875,6.37054443359375,5.18798828125,-6.7596435546875,61.309814453125,54.730224609375,-8.97216796875
-1.635009765625,-0.0205078125,0.810791015625,-5.7525634765625,-14.6026611328125,-25.65765380859375,60.5621337890625,54.8797607421875,-7.9254150390625
-1.824462890625,-0.259033203125,0.838134765625,-1.57928466796875,-40.29083251953125,-37.567138671875,60.5621337890625,54.8797607421875,-7.9254150390625
-1.655029296875,-0.344482421875,0.85107421875,26.6265869140625,-68.94683837890625,-42.0684814453125,62.20703125,54.43115234375,-8.673095703125
-1.40087890625,-0.42333984375,0.769775390625,64.1632080078125,-83.61053466796875,-40.93170166015625,61.309814453125,54.730224609375,-7.177734375
-1.42138671875,-0.15869140625,0.929443359375,69.20623779296875,-95.90911865234375,-64.10980224609375,62.9547119140625,54.2816162109375,-6.4300537109375
-1.56396484375,-0.259521484375,1.01806640625,59.10491943359375,-114.28070068359375,-76.2939453125,61.907958984375,54.730224609375,-5.38330078125
-1.53271484375,-0.332763671875,1.11376953125,63.8580322265625,-109.33685302734375,-65.29998779296875,64.00146484375,53.8330078125,-3.887939453125
-1.52587890625,-0.2822265625,1.16015625,63.11798095703125,-94.81048583984375,-48.24066162109375,63.4033203125,54.43115234375,-3.5888671875
-1.3681640625,-0.177001953125,1.1005859375,51.0101318359375,-110.54229736328125,-20.82061767578125,64.1510009765625,54.8797607421875,-3.1402587890625
-1.0830078125,-0.046142578125,1.081787109375,23.98681640625,-136.5509033203125,-6.7901611328125,63.8519287109375,55.1788330078125,-2.2430419921875
-1.76611328125,-0.188232421875,1.188232421875,10.74981689453125,-170.46356201171875,-41.08428955078125,64.1510009765625,53.9825439453125,-1.3458251953125
-1.244140625,-0.630126953125,0.762939453125,39.45159912109375,-131.47735595703125,-39.215087890625,65.9454345703125,54.8797607421875,0.1495361328125
-1.537841796875,0.191650390625,0.77392578125,15.44189453125,-94.329833984375,-38.79547119140625,65.3472900390625,54.5806884765625,0.7476806640625
-1.200439453125,-0.37548828125,0.8779296875,-13.3209228515625,-86.99798583984375,-9.70458984375,65.496826171875,54.43115234375,2.392578125
-0.7001953125,-0.0107421875,1.679931640625,-116.485595703125,-122.52044677734375,-59.112548828125,65.19775390625,55.62744140625,1.1962890625
-0.423828125,-0.266845703125,1.153076171875,-128.05938720703125,-96.68731689453125,-11.688232421875,64.599609375,54.730224609375,0.897216796875
-0.4677734375,0.04150390625,0.955810546875,-80.25360107421875,-51.82647705078125,-23.84185791015625,65.3472900390625,52.4871826171875,-0.7476806640625
-0.787353515625,-0.058837890625,0.980224609375,-56.884765625,-43.670654296875,-30.7159423828125,65.7958984375,53.533935546875,-1.495361328125
-0.363525390625,-0.214599609375,0.94580078125,-35.064697265625,-22.7508544921875,-23.50616455078125,64.599609375,53.23486328125,-2.093505859375
-0.716552734375,-0.29541015625,0.901123046875,-0.58746337890625,-37.31536865234375,-23.93341064453125,66.094970703125,52.935791015625,-3.289794921875
-0.592529296875,-0.378662109375,0.86376953125,17.89093017578125,-32.66143798828125,-16.02935791015625,66.693115234375,53.23486328125,-3.289794921875
-0.52099609375,-0.241943359375,0.92724609375,13.2293701171875,-12.7716064453125,-11.22283935546875,66.9921875,54.132080078125,-1.79443359375
-0.593505859375,-0.206787109375,0.8544921875,19.6075439453125,-3.13568115234375,-11.474609375,66.39404296875,52.337646484375,-2.093505859375
-0.553955078125,-0.229736328125,0.86181640625,18.798828125,2.05230712890625,-12.0391845703125,66.693115234375,52.03857421875,-2.99072265625
-0.55908203125,-0.295654296875,0.8603515625,17.05169677734375,6.3018798828125,-11.68060302734375,66.693115234375,52.03857421875,-2.99072265625
-0.5625,-0.300537109375,0.8447265625,16.05987548828125,10.12420654296875,-7.110595703125,66.693115234375,52.03857421875,-2.99072265625
-0.595703125,-0.2861328125,0.81640625,15.92254638671875,11.16943359375,-3.84521484375,66.9921875,52.63671875,-0.299072265625
-0.612060546875,-0.208251953125,0.813720703125,17.23480224609375,5.1727294921875,2.6397705078125,68.0389404296875,52.7862548828125,0.4486083984375
-0.599609375,-0.225341796875,0.852783203125,17.99774169921875,1.09100341796875,4.75311279296875,66.2445068359375,53.0853271484375,0.1495361328125
-0.6083984375,-0.181640625,0.865234375,15.15960693359375,1.953125,5.2490234375,66.5435791015625,53.0853271484375,0.4486083984375
-0.6044921875,-0.128662109375,0.857177734375,12.9241943359375,-0.5950927734375,4.52423095703125,66.5435791015625,53.0853271484375,0.4486083984375
-0.596435546875,-0.07568359375,0.876953125,9.51385498046875,-4.43267822265625,1.5716552734375,65.496826171875,52.63671875,1.1962890625
-0.5634765625,-0.064208984375,0.89453125,-1.33514404296875,-5.25665283203125,-1.190185546875,65.19775390625,53.23486328125,2.392578125
-0.570068359375,-0.184814453125,0.84375,-2.28118896484375,-0.3204345703125,-1.13677978515625,66.2445068359375,52.1881103515625,0.7476806640625
-0.56103515625,-0.235107421875,0.819091796875,-5.83648681640625,-3.0670166015625,1.10626220703125,66.094970703125,53.23486328125,0.897216796875
-0.554931640625,-0.280029296875,0.80224609375,1.89208984375,7.110595703125,1.45721435546875,66.39404296875,52.63671875,1.1962890625
-0.574951171875,-0.2333984375,0.836181640625,0.72479248046875,-3.10516357421875,2.43377685546875,66.5435791015625,53.0853271484375,1.9439697265625
-0.594970703125,-0.179443359375,0.833740234375,-1.74713134765625,-6.683349609375,2.49481201171875,66.8426513671875,53.0853271484375,1.3458251953125
-0.54052734375,-0.1328125,0.88525390625,-0.09918212890625,-1.28936767578125,-0.58746337890625,66.2445068359375,53.0853271484375,1.6448974609375
-0.57470703125,-0.084716796875,0.86962890625,-11.2457275390625,-2.54058837890625,-3.80706787109375,66.9921875,52.935791015625,2.093505859375
-0.569091796875,-0.152099609375,0.884521484375,-19.4549560546875,-1.21307373046875,-3.19671630859375,66.2445068359375,53.3843994140625,1.6448974609375
-0.573486328125,-0.1533203125,0.859375,-26.17645263671875,0.9002685546875,-3.204345703125,68.3380126953125,52.4871826171875,1.3458251953125
-0.572998046875,-0.212158203125,0.850341796875,-29.84619140625,0.732421875,-1.99127197265625,65.7958984375,52.935791015625,0.0
-0.568603515625,-0.349365234375,0.85888671875,-22.59063720703125,-2.86865234375,2.1209716796875,66.39404296875,54.43115234375,-0.897216796875
-0.573974609375,-0.225830078125,0.85400390625,-17.95196533203125,-1.01470947265625,1.56402587890625,65.7958984375,52.337646484375,-2.392578125
-0.541259765625,-0.221923828125,0.83203125,-21.1944580078125,-1.46484375,3.8604736328125,67.1417236328125,52.4871826171875,-1.6448974609375
-0.569091796875,-0.23486328125,0.8466796875,-14.19830322265625,3.54766845703125,-1.1138916015625,65.6463623046875,52.4871826171875,-1.0467529296875
-0.566162109375,-0.204345703125,0.836181640625,-12.93182373046875,4.486083984375,-2.49481201171875,64.599609375,53.533935546875,-1.79443359375
-0.568359375,-0.247314453125,0.85498046875,-11.7950439453125,2.8839111328125,-6.378173828125,66.2445068359375,52.4871826171875,-2.2430419921875
-0.587890625,-0.221923828125,0.83154296875,-8.23211669921875,2.44140625,-4.0283203125,66.39404296875,52.337646484375,-2.99072265625
-0.59521484375,-0.233642578125,0.836181640625,-4.69970703125,0.17547607421875,-5.7525634765625,66.5435791015625,52.1881103515625,-1.9439697265625
-0.595703125,-0.24755859375,0.82861328125,-2.09808349609375,-2.60162353515625,-5.3558349609375,67.291259765625,51.4404296875,-1.495361328125
-0.585205078125,-0.243896484375,0.840087890625,-2.08282470703125,-3.24249267578125,-5.6304931640625,67.291259765625,51.4404296875,-1.495361328125
-0.590576171875,-0.2265625,0.8408203125,-2.58636474609375,-3.70025634765625,-3.9215087890625,65.9454345703125,51.5899658203125,-1.3458251953125
-0.584228515625,-0.236328125,0.842041015625,-2.63214111328125,-4.81414794921875,-5.706787109375,66.8426513671875,51.8890380859375,-1.3458251953125
-0.576171875,-0.2646484375,0.83251953125,-1.06048583984375,-4.9591064453125,-5.401611328125,65.3472900390625,52.4871826171875,-1.6448974609375
-0.592529296875,-0.2109375,0.8388671875,-2.41851806640625,-4.81414794921875,-5.33294677734375,65.3472900390625,52.4871826171875,-1.6448974609375
-0.572509765625,-0.18798828125,0.858642578125,-2.54058837890625,-5.645751953125,-5.95855712890625,65.3472900390625,52.4871826171875,-1.6448974609375
-0.58154296875,-0.177978515625,0.85400390625,-2.8839111328125,-7.11822509765625,-6.988525390625,66.5435791015625,50.6927490234375,0.1495361328125
-0.573486328125,-0.21728515625,0.864501953125,-7.7667236328125,-5.5999755859375,-7.0953369140625,65.6463623046875,51.5899658203125,-1.3458251953125
-0.56298828125,-0.241943359375,0.84912109375,-6.072998046875,-4.33349609375,-7.34710693359375,66.5435791015625,53.0853271484375,-1.6448974609375
-0.572998046875,-0.26708984375,0.8466796875,-5.9051513671875,-3.96728515625,-6.72149658203125,66.5435791015625,53.0853271484375,-1.6448974609375
-0.569091796875,-0.312255859375,0.827880859375,-4.32586669921875,-2.43377685546875,-5.79833984375,66.5435791015625,53.0853271484375,-1.6448974609375
-0.560546875,-0.2841796875,0.832275390625,-3.4332275390625,-1.8768310546875,-4.57763671875,66.5435791015625,53.0853271484375,-1.6448974609375
-0.533447265625,-0.317138671875,0.8359375,-0.4119873046875,1.2969970703125,-3.6468505859375,66.693115234375,51.739501953125,-0.299072265625
-0.54345703125,-0.369384765625,0.8310546875,2.18963623046875,1.8768310546875,-0.3204345703125,67.889404296875,52.63671875,-0.299072265625
-0.557373046875,-0.31396484375,0.8359375,7.68280029296875,-1.93023681640625,2.79998779296875,67.4407958984375,51.8890380859375,-0.4486083984375
-0.536376953125,-0.277587890625,0.83251953125,10.24627685546875,-2.81524658203125,3.85284423828125,66.2445068359375,51.5899658203125,-1.0467529296875
-0.572509765625,-0.339111328125,0.812744140625,15.19775390625,-6.3629150390625,6.3323974609375,66.2445068359375,51.5899658203125,-1.0467529296875
-0.566162109375,-0.341064453125,0.83203125,18.77593994140625,-6.76727294921875,8.8958740234375,66.2445068359375,51.5899658203125,-1.0467529296875
-0.54638671875,-0.2802734375,0.8515625,21.91162109375,-8.6822509765625,10.03265380859375,66.5435791015625,51.5899658203125,-0.4486083984375
-0.5625,-0.288330078125,0.81640625,24.3377685546875,-8.6822509765625,8.21685791015625,66.8426513671875,50.9918212890625,-0.1495361328125
-0.578369140625,-0.296142578125,0.84130859375,24.505615234375,-8.56781005859375,8.64410400390625,66.39404296875,52.03857421875,0.299072265625
-0.53271484375,-0.205322265625,0.8671875,23.90289306640625,-6.5460205078125,6.69097900390625,66.39404296875,52.03857421875,0.299072265625
-0.527099609375,-0.220458984375,0.86376953125,23.0560302734375,-4.00543212890625,3.41033935546875,66.39404296875,52.03857421875,0.299072265625
-0.524658203125,-0.23681640625,0.879638671875,19.927978515625,-3.88336181640625,2.54058837890625,67.889404296875,52.03857421875,0.299072265625
-0.53955078125,-0.19580078125,0.873046875,18.57757568359375,-1.42669677734375,1.0223388671875,67.291259765625,53.533935546875,0.59814453125
-0.525634765625,-0.17333984375,0.90478515625,16.78466796875,0.4425048828125,-0.030517578125,66.693115234375,53.533935546875,0.59814453125
-0.538818359375,-0.203369140625,0.884033203125,14.82391357421875,0.81634521484375,-0.09918212890625,66.693115234375,53.533935546875,0.59814453125
-0.54345703125,-0.14453125,0.89013671875,12.82501220703125,0.70953369140625,-0.823974609375,66.693115234375,53.533935546875,0.59814453125
-0.535400390625,-0.141357421875,0.877685546875,11.8408203125,2.1514892578125,-2.2430419921875,66.9921875,50.543212890625,0.897216796875
-0.5556640625,-0.214599609375,0.856201171875,11.2457275390625,3.68499755859375,-2.227783203125,65.3472900390625,53.3843994140625,1.6448974609375
-0.56103515625,-0.24365234375,0.848876953125,11.32965087890625,1.739501953125,-2.38800048828125,66.39404296875,52.03857421875,0.59814453125
-0.549560546875,-0.311279296875,0.8330078125,12.62664794921875,3.387451171875,-1.28936767578125,66.39404296875,52.03857421875,0.59814453125
-0.549560546875,-0.291259765625,0.845458984375,13.580322265625,6.16455078125,-0.61798095703125,66.39404296875,52.03857421875,0.59814453125
-0.551025390625,-0.228271484375,0.85693359375,15.12908935546875,8.7890625,-0.30517578125,66.39404296875,52.03857421875,0.59814453125
-0.5556640625,-0.273193359375,0.849365234375,15.4571533203125,10.32257080078125,1.13677978515625,66.693115234375,52.63671875,0.59814453125
-0.5595703125,-0.327880859375,0.848876953125,15.99884033203125,10.97869873046875,2.838134765625,66.39404296875,52.63671875,0.897216796875
-0.55322265625,-0.24267578125,0.84619140625,17.547607421875,10.955810546875,3.12042236328125,67.7398681640625,51.5899658203125,0.4486083984375
-0.55126953125,-0.210693359375,0.88037109375,18.39447021484375,11.46697998046875,2.84576416015625,67.7398681640625,51.5899658203125,0.4486083984375
-0.54931640625,-0.238525390625,0.88330078125,17.6544189453125,12.603759765625,3.27301025390625,67.7398681640625,51.5899658203125,0.4486083984375
-0.545654296875,-0.177978515625,0.883544921875,16.021728515625,12.71820068359375,3.41796875,66.5435791015625,51.5899658203125,0.7476806640625
-0.555419921875,-0.09765625,0.884521484375,14.57977294921875,12.725830078125,0.03814697265625,67.1417236328125,51.5899658203125,0.1495361328125
-0.564453125,-0.126708984375,0.874755859375,15.472412109375,10.009765625,1.44195556640625,65.7958984375,53.533935546875,2.093505859375
-0.578125,-0.161376953125,0.86669921875,12.3443603515625,8.58306884765625,1.5106201171875,65.7958984375,53.533935546875,2.093505859375
-0.5615234375,-0.171875,0.869384765625,11.08551025390625,6.622314453125,1.5869140625,65.7958984375,53.533935546875,2.093505859375
-0.572021484375,-0.20751953125,0.85009765625,10.52093505859375,2.02178955078125,2.28118896484375,66.9921875,52.337646484375,0.59814453125
-0.565185546875,-0.220458984375,0.856201171875,7.89642333984375,3.3721923828125,3.082275390625,67.4407958984375,52.1881103515625,0.7476806640625
-0.572021484375,-0.207763671875,0.85205078125,10.9100341796875,2.7923583984375,3.48663330078125,67.4407958984375,52.4871826171875,1.3458251953125
-0.571533203125,-0.209228515625,0.8544921875,11.63482666015625,5.85174560546875,3.875732421875,67.4407958984375,52.4871826171875,1.3458251953125
-0.56982421875,-0.22705078125,0.8623046875,12.8021240234375,5.27191162109375,4.1656494140625,67.4407958984375,52.4871826171875,1.3458251953125
-0.5712890625,-0.23681640625,0.868408203125,13.49639892578125,7.38525390625,4.34112548828125,66.2445068359375,51.5899658203125,2.2430419921875
-0.56298828125,-0.22216796875,0.85986328125,14.06097412109375,8.18634033203125,4.7760009765625,67.1417236328125,53.6834716796875,3.4393310546875
-0.564208984375,-0.210205078125,0.864990234375,15.045166015625,5.9051513671875,5.0811767578125,67.1417236328125,51.8890380859375,2.8411865234375
-0.564697265625,-0.191650390625,0.8701171875,14.85443115234375,8.4228515625,5.06591796875,67.1417236328125,51.8890380859375,2.8411865234375
-0.558837890625,-0.182861328125,0.88525390625,14.79339599609375,7.843017578125,4.5928955078125,67.1417236328125,51.8890380859375,2.8411865234375
-0.559326171875,-0.18115234375,0.8779296875,14.678955078125,10.50567626953125,4.9896240234375,67.1417236328125,51.8890380859375,2.8411865234375
-0.569091796875,-0.166259765625,0.880126953125,14.7552490234375,9.81903076171875,5.31005859375,67.59033203125,52.03857421875,3.887939453125
-0.563232421875,-0.171630859375,0.872802734375,15.32745361328125,9.94110107421875,5.79833984375,66.39404296875,52.03857421875,4.78515625
-0.5703125,-0.142578125,0.882568359375,16.24298095703125,12.47406005859375,4.98199462890625,67.4407958984375,52.7862548828125,4.9346923828125
-0.56689453125,-0.162109375,0.86572265625,16.65496826171875,13.580322265625,5.279541015625,67.4407958984375,52.7862548828125,4.9346923828125
-0.549560546875,-0.200439453125,0.884765625,18.4478759765625,14.06097412109375,6.5155029296875,67.4407958984375,52.7862548828125,4.9346923828125
-0.558837890625,-0.1767578125,0.8876953125,19.287109375,15.0146484375,6.40869140625,66.094970703125,52.03857421875,4.18701171875
-0.57763671875,-0.14208984375,0.884765625,18.2342529296875,18.37158203125,6.6986083984375,65.6463623046875,52.7862548828125,4.3365478515625
-0.56787109375,-0.141357421875,0.85986328125,17.8985595703125,20.36285400390625,6.75201416015625,65.9454345703125,52.7862548828125,4.3365478515625
-0.58056640625,-0.139404296875,0.8466796875,19.012451171875,20.86639404296875,6.08062744140625,65.9454345703125,52.7862548828125,4.3365478515625
-0.580810546875,-0.132080078125,0.878173828125,20.01953125,22.88055419921875,5.1422119140625,65.9454345703125,52.7862548828125,4.3365478515625
-0.58984375,-0.1279296875,0.87841796875,18.9971923828125,20.4010009765625,5.7830810546875,66.39404296875,52.337646484375,4.78515625
-0.580810546875,-0.103759765625,0.913330078125,17.46368408203125,22.3541259765625,6.32476806640625,66.5435791015625,53.0853271484375,5.8319091796875
-0.596435546875,-0.11181640625,0.9345703125,17.608642578125,24.3682861328125,6.21795654296875,65.7958984375,52.337646484375,6.57958984375
-0.6220703125,-0.091796875,0.9892578125,16.28875732421875,25.15411376953125,10.23101806640625,65.7958984375,52.337646484375,6.57958984375
-0.603271484375,-0.146484375,1.078125,15.87677001953125,37.02545166015625,12.8631591796875,65.7958984375,52.337646484375,6.57958984375
-0.673583984375,-0.244873046875,1.12744140625,27.71759033203125,50.72784423828125,20.01190185546875,66.2445068359375,53.3843994140625,6.1309814453125
-0.767333984375,-0.352294921875,1.1279296875,31.99005126953125,56.2591552734375,28.5797119140625,66.9921875,53.533935546875,5.9814453125
-0.739501953125,-0.349853515625,1.275146484375,37.08648681640625,63.9190673828125,44.0216064453125,65.6463623046875,53.0853271484375,5.2337646484375
-0.765380859375,-0.521728515625,1.334716796875,49.591064453125,86.1053466796875,68.6798095703125,66.2445068359375,53.6834716796875,4.3365478515625
-0.921875,-0.533447265625,1.3515625,58.66241455078125,101.470947265625,100.05950927734375,66.39404296875,54.43115234375,5.084228515625
-0.928466796875,-0.4033203125,1.516357421875,64.99481201171875,117.279052734375,119.3695068359375,66.39404296875,54.43115234375,5.084228515625
-1.1552734375,-0.75146484375,1.461669921875,68.10760498046875,122.86376953125,138.57269287109375,66.39404296875,54.43115234375,5.084228515625
-1.56298828125,-0.1044921875,1.99993896484375,-5.7525634765625,132.45391845703125,56.89239501953125,64.7491455078125,56.9732666015625,1.6448974609375
2.0,0.047119140625,1.68115234375,-40.19927978515625,118.8812255859375,43.99871826171875,64.599609375,57.122802734375,2.691650390625
-1.705810546875,-0.443603515625,1.607666015625,-44.2352294921875,135.3302001953125,77.33154296875,63.702392578125,57.421875,2.691650390625
-1.984375,0.229248046875,1.74072265625,-64.727783203125,149.47509765625,50.27008056640625,63.702392578125,57.421875,2.691650390625
2.0,-1.187744140625,1.6396484375,-54.31365966796875,112.31231689453125,49.62158203125,63.702392578125,57.421875,2.691650390625
2.0,-0.22998046875,1.5576171875,-72.1435546875,249.99237060546875,33.31756591796875,63.4033203125,57.720947265625,0.59814453125
-0.538818359375,-0.608642578125,1.27685546875,-14.2822265625,128.875732421875,60.56976318359375,63.702392578125,57.122802734375,-0.59814453125
-1.464599609375,0.3408203125,1.35546875,-22.31597900390625,178.76434326171875,81.7413330078125,64.00146484375,57.122802734375,-1.1962890625
-1.24755859375,0.181640625,1.283447265625,-56.915283203125,106.65130615234375,90.55328369140625,62.9547119140625,57.2723388671875,-1.9439697265625
-1.011962890625,-0.4228515625,1.354248046875,-30.03692626953125,61.737060546875,117.30194091796875,63.2537841796875,57.2723388671875,-3.4393310546875
-0.978271484375,0.015380859375,1.33642578125,-49.26300048828125,51.422119140625,110.870361328125,62.506103515625,58.917236328125,-4.18701171875
-0.873046875,-0.1015625,1.371337890625,-57.21282958984375,82.03887939453125,95.06988525390625,62.506103515625,59.21630859375,-4.486083984375
-0.9462890625,-0.307861328125,1.193603515625,-32.15789794921875,132.91168212890625,72.784423828125,60.5621337890625,59.0667724609375,-6.7291259765625
-0.980712890625,-0.054443359375,1.017333984375,-32.93609619140625,94.5587158203125,58.06732177734375,60.2630615234375,58.7677001953125,-7.9254150390625
-0.88916015625,0.036376953125,0.9443359375,-22.25494384765625,78.125,47.149658203125,60.711669921875,59.21630859375,-10.16845703125
-1.013916015625,0.06689453125,0.91552734375,-4.55474853515625,66.59698486328125,35.5224609375,61.4593505859375,59.6649169921875,-11.2152099609375
-1.0615234375,0.067626953125,0.845947265625,10.4522705078125,41.69464111328125,22.7813720703125,60.5621337890625,59.0667724609375,-10.9161376953125
-1.079833984375,0.067138671875,0.752197265625,16.7236328125,13.275146484375,5.8135986328125,59.9639892578125,59.0667724609375,-8.8226318359375
-1.03515625,0.0869140625,0.674560546875,20.46966552734375,-9.3841552734375,-5.523681640625,60.8612060546875,58.1695556640625,-9.4207763671875
-0.90380859375,0.09619140625,0.48779296875,12.68768310546875,-32.53173828125,-6.75201416015625,61.1602783203125,58.7677001953125,-7.9254150390625
-0.7275390625,0.136474609375,0.442138671875,9.2926025390625,-45.4254150390625,-12.5274658203125,60.41259765625,59.21630859375,-8.3740234375
-0.74169921875,-0.0283203125,0.352783203125,13.2598876953125,-55.51910400390625,-21.17919921875,60.113525390625,58.02001953125,-6.878662109375
-0.74560546875,0.0185546875,0.286376953125,12.3443603515625,-61.79046630859375,-41.55731201171875,61.0107421875,58.6181640625,-6.57958984375
-0.64208984375,0.02392578125,0.12255859375,9.979248046875,-65.26947021484375,-49.346923828125,61.0107421875,58.02001953125,-6.57958984375
-0.44482421875,0.10400390625,-0.06201171875,-1.74713134765625,-61.85150146484375,-49.9725341796875,60.8612060546875,58.7677001953125,-4.6356201171875
-0.353271484375,0.082763671875,-0.154296875,-2.78472900390625,-63.62152099609375,-48.92730712890625,62.6556396484375,58.1695556640625,-4.3365478515625
-0.292724609375,0.089111328125,-0.158203125,0.7171630859375,-54.45098876953125,-57.82318115234375,63.104248046875,58.917236328125,-3.5888671875
-0.197265625,0.122314453125,-0.204833984375,2.79998779296875,-39.98565673828125,-59.600830078125,62.0574951171875,59.3658447265625,-1.0467529296875
-0.135009765625,0.1005859375,-0.283203125,-20.04241943359375,-41.748046875,-38.5589599609375,62.9547119140625,58.7677001953125,-3.1402587890625
-0.041015625,0.406494140625,-0.344482421875,-17.79937744140625,-28.86199951171875,-36.2701416015625,63.2537841796875,57.2723388671875,-1.9439697265625
-0.447509765625,0.254638671875,-0.600341796875,-55.29022216796875,-163.53607177734375,6.58416748046875,63.104248046875,57.122802734375,0.897216796875
0.75390625,0.533935546875,-0.380615234375,2.66265869140625,21.26312255859375,-13.946533203125,63.5528564453125,58.7677001953125,3.7384033203125
-0.01513671875,0.30029296875,-0.390625,-26.43585205078125,-8.61358642578125,14.88494873046875,64.7491455078125,57.5714111328125,2.5421142578125
0.0634765625,0.32275390625,-0.284912109375,-23.41461181640625,5.18798828125,25.2838134765625,63.702392578125,57.720947265625,3.887939453125
0.052734375,0.332275390625,-0.15234375,-31.76116943359375,22.77374267578125,28.64837646484375,63.702392578125,58.6181640625,4.486083984375
0.166748046875,0.24365234375,-0.322021484375,-8.97979736328125,46.92840576171875,32.27996826171875,62.20703125,58.319091796875,3.289794921875
0.055419921875,0.28369140625,-0.171630859375,-23.82659912109375,78.7506103515625,44.2962646484375,63.104248046875,58.917236328125,2.392578125
0.02392578125,0.277099609375,-0.12939453125,-22.13287353515625,70.9991455078125,54.03900146484375,63.4033203125,58.6181640625,0.299072265625
0.00830078125,0.203125,-0.075927734375,-9.49859619140625,85.65521240234375,56.9305419921875,62.20703125,58.319091796875,1.79443359375
-0.0771484375,0.137451171875,-0.031494140625,1.07574462890625,105.76629638671875,45.99761962890625,61.309814453125,58.02001953125,0.897216796875
-0.207275390625,0.0966796875,0.05224609375,-13.45062255859375,99.22027587890625,38.03253173828125,61.0107421875,58.917236328125,-0.897216796875
-0.19921875,0.10986328125,0.07861328125,-18.829345703125,104.94232177734375,41.92352294921875,61.60888671875,59.814453125,-0.59814453125
-0.306640625,0.102783203125,0.0234375,-21.15631103515625,110.2294921875,50.08697509765625,60.41259765625,57.122802734375,-1.495361328125
-0.413818359375,0.0078125,0.114501953125,-16.99066162109375,102.47039794921875,55.91583251953125,60.711669921875,58.02001953125,-2.99072265625
-0.50537109375,0.161865234375,0.240234375,-18.3868408203125,90.02685546875,44.15130615234375,61.0107421875,58.917236328125,-4.486083984375
-0.611083984375,0.124267578125,0.325927734375,-14.68658447265625,80.1849365234375,30.0445556640625,58.917236328125,58.917236328125,-5.084228515625
-0.65380859375,0.156982421875,0.45068359375,4.9896240234375,78.86505126953125,18.280029296875,59.9639892578125,57.5714111328125,-6.1309814453125
-0.766357421875,0.20361328125,0.44482421875,23.4375,74.98931884765625,3.6773681640625,58.7677001953125,57.5714111328125,-6.7291259765625
-0.802490234375,0.10595703125,0.40283203125,35.49957275390625,55.7098388671875,-2.99072265625,59.21630859375,57.122802734375,-6.280517578125
-0.755615234375,0.278076171875,0.516357421875,28.472900390625,38.03253173828125,-9.27734375,59.0667724609375,56.9732666015625,-6.4300537109375
-1.06494140625,0.256591796875,0.586669921875,21.2554931640625,8.7738037109375,-18.9971923828125,59.814453125,58.02001953125,-7.177734375
-1.1015625,0.019775390625,0.62451171875,29.86907958984375,-36.3006591796875,-19.04296875,59.6649169921875,55.4779052734375,-7.0281982421875
-1.101318359375,0.006591796875,0.658447265625,41.95404052734375,-59.54742431640625,-31.15081787109375,60.113525390625,56.82373046875,-7.177734375
-1.3623046875,0.10546875,0.619873046875,43.11370849609375,-52.3223876953125,-46.0968017578125,59.515380859375,56.82373046875,-5.9814453125
