Accel_X,Accel_Y,Accel_Z,GYRO_X,GYRO_Y,GYRO_Z,Magn_X,Magn_Y,Magn_Z
-0.185546875,0.36279296875,0.822509765625,16.47186279296875,-7.56072998046875,15.12908935546875,53.0853271484375,23.1781005859375,63.5528564453125
-0.1728515625,0.358642578125,0.8251953125,9.796142578125,-9.5367431640625,13.4735107421875,52.7862548828125,23.4771728515625,62.9547119140625
-0.136474609375,0.355712890625,0.7724609375,3.16619873046875,-15.72418212890625,6.21795654296875,53.8330078125,22.430419921875,61.907958984375
-0.097900390625,0.338623046875,0.806396484375,-2.01416015625,-29.16717529296875,12.59613037109375,53.0853271484375,22.5799560546875,64.4500732421875
-0.173095703125,0.32275390625,0.87890625,-9.95635986328125,-27.06146240234375,12.59613037109375,53.8330078125,22.7294921875,63.702392578125
-0.20361328125,0.355712890625,0.924560546875,-13.031005859375,-20.66802978515625,10.81085205078125,53.533935546875,23.028564453125,64.898681640625
-0.20263671875,0.360595703125,0.959228515625,-12.65716552734375,-17.67730712890625,9.490966796875,53.8330078125,22.430419921875,63.702392578125
-0.192626953125,0.373291015625,0.995849609375,-12.44354248046875,-17.3797607421875,9.22393798828125,53.3843994140625,21.6827392578125,64.1510009765625
-0.1884765625,0.39111328125,1.02734375,-10.009765625,-13.6566162109375,8.35418701171875,54.2816162109375,20.4864501953125,63.8519287109375
-0.209228515625,0.39501953125,1.0419921875,-7.87353515625,-5.2490234375,4.89044189453125,53.8330078125,20.3369140625,65.19775390625
-0.208251953125,0.405517578125,1.038818359375,-4.96673583984375,0.2899169921875,1.4801025390625,54.5806884765625,20.7855224609375,64.4500732421875
-0.2001953125,0.4150390625,1.037353515625,-2.2125244140625,1.1444091796875,-0.701904296875,53.0853271484375,21.9818115234375,66.5435791015625
-0.189697265625,0.404296875,1.021484375,-1.53350830078125,-0.19073486328125,1.03759765625,53.8330078125,21.832275390625,65.19775390625
-0.19482421875,0.4013671875,1.02685546875,-1.2359619140625,-2.593994140625,2.6092529296875,52.935791015625,21.533203125,65.19775390625
-0.172119140625,0.405029296875,1.031494140625,0.701904296875,-0.67901611328125,2.01416015625,53.8330078125,22.13134765625,65.496826171875
-0.183349609375,0.405517578125,1.012939453125,2.3651123046875,1.3275146484375,0.09918212890625,52.4871826171875,21.9818115234375,66.2445068359375
-0.164306640625,0.38134765625,1.005126953125,2.05230712890625,-2.11334228515625,1.77764892578125,53.8330078125,22.13134765625,64.599609375
-0.165771484375,0.369140625,0.973388671875,4.33349609375,-3.08990478515625,-0.946044921875,53.9825439453125,23.1781005859375,65.3472900390625
-0.161865234375,0.36376953125,0.96875,3.41796875,-2.7313232421875,-1.190185546875,53.3843994140625,21.3836669921875,65.6463623046875
-0.157470703125,0.355712890625,0.953125,1.312255859375,-2.20489501953125,0.3662109375,53.8330078125,21.832275390625,65.19775390625
-0.156005859375,0.365966796875,0.978271484375,0.9307861328125,-6.29425048828125,-0.90789794921875,53.9825439453125,21.6827392578125,63.8519287109375
-0.164794921875,0.366943359375,0.95458984375,1.9378662109375,-8.1939697265625,-2.044677734375,54.132080078125,21.533203125,65.19775390625
-0.175537109375,0.36572265625,0.975341796875,-1.0833740234375,-8.97216796875,-3.80706787109375,53.6834716796875,20.7855224609375,65.3472900390625
-0.189697265625,0.376953125,0.987060546875,-1.85394287109375,-6.26373291015625,0.9613037109375,54.2816162109375,21.9818115234375,64.1510009765625
-0.189453125,0.382568359375,0.97412109375,-0.9765625,-0.9613037109375,-1.24359130859375,53.8330078125,22.13134765625,65.496826171875
-0.169677734375,0.394287109375,0.939208984375,-1.5716552734375,1.8310546875,-1.4801025390625,53.533935546875,21.832275390625,63.4033203125
-0.16015625,0.395263671875,0.924072265625,-2.9754638671875,-1.53350830078125,0.45013427734375,54.132080078125,20.93505859375,63.4033203125
-0.202392578125,0.381591796875,0.9404296875,-4.32586669921875,0.28228759765625,0.98419189453125,53.533935546875,22.430419921875,64.00146484375
-0.1865234375,0.38134765625,0.95703125,-5.55419921875,0.1373291015625,1.77764892578125,53.9825439453125,22.5799560546875,64.7491455078125
-0.170654296875,0.39013671875,0.950439453125,-3.936767578125,-1.79290771484375,3.07464599609375,53.9825439453125,22.5799560546875,64.7491455078125
-0.15869140625,0.359375,0.95703125,-7.0343017578125,-4.08935546875,4.23431396484375,54.43115234375,22.7294921875,63.702392578125
-0.1455078125,0.37060546875,0.955810546875,-8.087158203125,-4.425048828125,3.73077392578125,54.132080078125,23.028564453125,64.300537109375
-0.15478515625,0.37890625,0.9638671875,-8.91876220703125,-3.80706787109375,2.2735595703125,53.23486328125,22.430419921875,64.599609375
-0.138671875,0.35986328125,0.9912109375,-8.94927978515625,-5.69915771484375,2.06756591796875,53.23486328125,22.430419921875,64.599609375
-0.1328125,0.374755859375,1.012939453125,-8.56781005859375,-4.78363037109375,4.058837890625,55.328369140625,24.52392578125,65.496826171875
-0.138427734375,0.37255859375,1.02099609375,-6.53076171875,-4.03594970703125,3.89862060546875,54.132080078125,24.224853515625,65.19775390625
-0.119384765625,0.369140625,1.025146484375,-5.66864013671875,-4.79888916015625,2.44903564453125,54.132080078125,22.430419921875,66.39404296875
-0.119384765625,0.372314453125,1.031005859375,-4.7607421875,-4.608154296875,2.5787353515625,53.8330078125,23.92578125,65.19775390625
-0.1220703125,0.3671875,1.024658203125,-3.99017333984375,-4.12750244140625,1.67083740234375,55.4779052734375,24.6734619140625,66.2445068359375
-0.121826171875,0.369384765625,1.027099609375,-3.45611572265625,-2.03704833984375,-0.19073486328125,55.4779052734375,24.6734619140625,66.2445068359375
-0.119384765625,0.37158203125,1.001708984375,-3.021240234375,-0.7781982421875,-1.708984375,55.4779052734375,24.6734619140625,66.2445068359375
-0.117919921875,0.3720703125,1.01611328125,-2.90679931640625,0.1373291015625,-1.739501953125,55.4779052734375,24.6734619140625,66.2445068359375
-0.119873046875,0.365966796875,1.025146484375,-2.38800048828125,0.2899169921875,-1.2969970703125,53.9825439453125,23.4771728515625,65.6463623046875
-0.1201171875,0.369873046875,1.040771484375,-2.288818359375,2.29644775390625,-0.946044921875,53.533935546875,24.224853515625,65.7958984375
-0.1181640625,0.3740234375,1.029541015625,-1.02996826171875,5.31768798828125,-4.49371337890625,54.8797607421875,23.1781005859375,65.0482177734375
-0.11328125,0.3662109375,1.01220703125,-0.1983642578125,4.1351318359375,-4.791259765625,54.8797607421875,23.1781005859375,65.0482177734375
-0.1142578125,0.35986328125,1.001220703125,-0.0762939453125,2.50244140625,-4.87518310546875,54.8797607421875,23.1781005859375,65.0482177734375
-0.120361328125,0.353515625,0.990478515625,-0.70953369140625,0.17547607421875,-4.180908203125,53.8330078125,23.626708984375,65.7958984375
-0.1279296875,0.35986328125,0.9912109375,-0.93841552734375,-1.5411376953125,-3.6773681640625,53.9825439453125,22.8790283203125,64.4500732421875
-0.14599609375,0.358642578125,1.001708984375,-1.2969970703125,-1.36566162109375,-3.204345703125,55.62744140625,22.7294921875,65.7958984375
-0.152099609375,0.33203125,1.00048828125,-1.83868408203125,-0.34332275390625,-5.11932373046875,55.62744140625,22.7294921875,65.7958984375
-0.12744140625,0.370361328125,1.017822265625,-1.25885009765625,-0.67901611328125,-4.852294921875,55.62744140625,22.7294921875,65.7958984375
-0.12255859375,0.36474609375,1.012939453125,-0.49591064453125,-0.30517578125,-4.14276123046875,55.62744140625,22.7294921875,65.7958984375
-0.13330078125,0.35986328125,1.009765625,-0.244140625,1.74713134765625,-10.52093505859375,55.4779052734375,24.0753173828125,66.2445068359375
-0.111083984375,0.364013671875,0.99755859375,-0.81634521484375,1.85394287109375,-11.322021484375,54.2816162109375,24.3743896484375,65.9454345703125
-0.095703125,0.365966796875,0.988037109375,-0.732421875,0.2288818359375,-12.33673095703125,54.5806884765625,23.4771728515625,65.6463623046875
-0.10546875,0.3671875,0.990234375,-0.78582763671875,-0.80108642578125,-11.40594482421875,54.5806884765625,23.4771728515625,65.6463623046875
-0.1162109375,0.35791015625,0.9873046875,-1.434326171875,-1.4801025390625,-11.43646240234375,54.5806884765625,23.4771728515625,65.6463623046875
-0.1123046875,0.359619140625,0.982421875,-1.79290771484375,-1.2969970703125,-12.2528076171875,54.5806884765625,23.4771728515625,65.6463623046875
-0.130615234375,0.362060546875,0.976806640625,-1.7852783203125,-0.99945068359375,-11.11602783203125,55.926513671875,21.533203125,66.094970703125
-0.148193359375,0.35009765625,0.9970703125,-2.90679931640625,-0.89263916015625,-10.21575927734375,53.9825439453125,22.5799560546875,65.3472900390625
-0.143798828125,0.353759765625,0.996826171875,-3.5247802734375,0.3662109375,-10.00213623046875,54.132080078125,21.234130859375,66.094970703125
-0.154052734375,0.352783203125,0.9970703125,-2.87628173828125,1.46484375,-11.2762451171875,55.328369140625,23.028564453125,65.7958984375
-0.148681640625,0.343017578125,1.004150390625,-2.87628173828125,1.68609619140625,-11.05499267578125,55.328369140625,23.028564453125,65.7958984375
-0.147705078125,0.345703125,1.006103515625,-3.4942626953125,1.2359619140625,-10.10894775390625,55.328369140625,23.028564453125,65.7958984375
-0.146240234375,0.350341796875,1.01318359375,-3.51715087890625,1.82342529296875,-10.79559326171875,55.328369140625,23.028564453125,65.7958984375
-0.146240234375,0.3505859375,1.009765625,-2.43377685546875,2.08282470703125,-10.772705078125,55.328369140625,23.028564453125,65.7958984375
-0.143310546875,0.343994140625,1.02978515625,-2.31170654296875,1.74713134765625,-10.45989990234375,55.1788330078125,21.0845947265625,65.3472900390625
-0.149169921875,0.347900390625,1.008544921875,-2.25830078125,1.983642578125,-10.06317138671875,53.8330078125,21.234130859375,64.300537109375
-0.145751953125,0.345703125,1.00830078125,-2.37274169921875,0.0457763671875,-10.528564453125,53.6834716796875,21.0845947265625,65.3472900390625
-0.139892578125,0.3466796875,0.99462890625,-2.78472900390625,2.78472900390625,-13.0615234375,53.8330078125,21.832275390625,64.898681640625
-0.130126953125,0.342529296875,0.99462890625,-2.55584716796875,2.7008056640625,-13.98468017578125,53.8330078125,21.832275390625,64.898681640625
-0.114990234375,0.340576171875,1.008544921875,-2.84576416015625,0.5645751953125,-11.97052001953125,53.8330078125,21.832275390625,64.898681640625
-0.127685546875,0.33642578125,1.001708984375,-4.20379638671875,0.75531005859375,-10.101318359375,54.132080078125,20.635986328125,64.300537109375
-0.132568359375,0.33251953125,1.014404296875,-4.85992431640625,0.579833984375,-9.2620849609375,53.533935546875,19.140625,64.599609375
-0.115234375,0.362060546875,1.003173828125,-3.1585693359375,-0.41961669921875,-9.185791015625,54.5806884765625,22.2808837890625,63.2537841796875
-0.115966796875,0.35693359375,1.011474609375,-2.23541259765625,-1.28936767578125,-7.2021484375,53.3843994140625,20.1873779296875,63.8519287109375
-0.10791015625,0.351318359375,1.00732421875,-1.64794921875,-1.68609619140625,-7.72857666015625,53.3843994140625,20.1873779296875,63.8519287109375
-0.10546875,0.34375,0.997802734375,-1.70135498046875,-2.288818359375,-6.1492919921875,53.3843994140625,20.1873779296875,63.8519287109375
-0.108154296875,0.35888671875,0.98486328125,-1.57928466796875,-2.62451171875,-6.53839111328125,54.132080078125,19.73876953125,63.702392578125
-0.10888671875,0.33447265625,0.98828125,-1.68609619140625,-4.92095947265625,-5.767822265625,55.1788330078125,18.9910888671875,64.4500732421875
-0.114013671875,0.33642578125,1.00341796875,-1.861572265625,-8.4228515625,-3.8909912109375,54.132080078125,18.54248046875,63.4033203125
-0.134033203125,0.337158203125,0.99609375,-2.29644775390625,-9.19342041015625,-0.16021728515625,53.533935546875,18.54248046875,61.907958984375
-0.151611328125,0.3232421875,0.998779296875,-3.27301025390625,-7.40814208984375,-1.312255859375,53.533935546875,18.54248046875,61.907958984375
-0.1630859375,0.325439453125,1.001220703125,-4.34112548828125,-4.35638427734375,-2.471923828125,53.533935546875,18.54248046875,61.907958984375
-0.158935546875,0.322509765625,1.000732421875,-4.64630126953125,-2.60162353515625,-5.4168701171875,53.533935546875,18.54248046875,61.907958984375
-0.16650390625,0.299560546875,0.98828125,-5.53131103515625,-0.8697509765625,-7.95745849609375,53.23486328125,16.748046875,62.506103515625
-0.219970703125,0.283447265625,0.9912109375,-7.89642333984375,5.53131103515625,-20.54595947265625,53.0853271484375,17.4957275390625,62.9547119140625
-0.1142578125,0.346923828125,1.0048828125,-7.69805908203125,-1.068115234375,-14.801025390625,53.533935546875,17.047119140625,62.20703125
-0.111328125,0.299072265625,1.0166015625,-8.14056396484375,-0.67138671875,-9.75799560546875,53.533935546875,17.047119140625,62.20703125
-0.1552734375,0.354248046875,0.99755859375,-6.805419921875,0.72479248046875,-8.61358642578125,53.533935546875,17.047119140625,62.20703125
-0.2041015625,0.359619140625,1.018310546875,-9.74273681640625,3.63922119140625,-12.29095458984375,53.6834716796875,17.4957275390625,60.8612060546875
-0.112548828125,0.3486328125,1.018310546875,-5.5694580078125,-0.274658203125,-7.10296630859375,53.0853271484375,16.0003662109375,61.4593505859375
-0.181640625,0.33056640625,1.01708984375,-6.82830810546875,0.8392333984375,-9.765625,52.1881103515625,15.4022216796875,60.8612060546875
-0.117919921875,0.35107421875,1.01611328125,-5.33294677734375,-0.60272216796875,-2.6702880859375,52.1881103515625,15.4022216796875,60.8612060546875
-0.16845703125,0.349609375,1.018310546875,-5.30242919921875,-1.18255615234375,-2.685546875,52.1881103515625,15.4022216796875,60.8612060546875
-0.17041015625,0.345947265625,1.006103515625,-4.96673583984375,-2.1209716796875,-3.7841796875,52.1881103515625,15.4022216796875,60.8612060546875
-0.161865234375,0.3544921875,0.999755859375,-4.7149658203125,-2.044677734375,-3.4942626953125,52.1881103515625,15.4022216796875,60.8612060546875
-0.17724609375,0.313720703125,1.0068359375,-4.57763671875,-4.46319580078125,-3.63922119140625,52.1881103515625,15.4022216796875,60.8612060546875
-0.180419921875,0.31689453125,1.013671875,-4.669189453125,-4.79888916015625,-4.37164306640625,52.03857421875,15.850830078125,60.41259765625
-0.1669921875,0.34033203125,1.009521484375,-4.93621826171875,-5.5999755859375,-1.9683837890625,52.63671875,15.850830078125,58.319091796875
-0.164306640625,0.35498046875,1.009033203125,-4.09698486328125,-6.134033203125,-2.3193359375,52.63671875,14.654541015625,58.6181640625
-0.157470703125,0.3408203125,1.01171875,-2.84576416015625,-7.22503662109375,-3.1585693359375,52.63671875,14.654541015625,58.6181640625
-0.16259765625,0.325927734375,1.020751953125,-4.98199462890625,-4.96673583984375,-0.54168701171875,52.63671875,14.654541015625,58.6181640625
-0.15283203125,0.34326171875,1.02490234375,-2.6702880859375,-7.293701171875,-3.7841796875,52.63671875,14.654541015625,58.6181640625
-0.191162109375,0.3173828125,1.015869140625,-2.99835205078125,0.335693359375,-4.45556640625,52.935791015625,14.35546875,57.421875
-0.12109375,0.353759765625,0.978271484375,-2.31170654296875,0.37384033203125,-3.47137451171875,51.8890380859375,14.2059326171875,57.2723388671875
-0.111083984375,0.328369140625,0.937744140625,-3.509521484375,-5.126953125,-5.24139404296875,53.533935546875,15.252685546875,57.421875
-0.180908203125,0.36474609375,0.964599609375,-1.2359619140625,-11.26861572265625,-7.07244873046875,52.4871826171875,14.5050048828125,56.6741943359375
-0.181396484375,0.3447265625,1.015869140625,-0.946044921875,-16.96014404296875,-4.9285888671875,52.4871826171875,14.5050048828125,56.6741943359375
-0.203125,0.33203125,1.059326171875,-3.60870361328125,-15.78521728515625,-2.349853515625,52.4871826171875,14.5050048828125,56.6741943359375
-0.1806640625,0.34912109375,1.02880859375,-4.8828125,-13.61846923828125,-0.28228759765625,52.935791015625,14.654541015625,55.328369140625
-0.158203125,0.334716796875,1.009521484375,-3.875732421875,-15.08331298828125,0.00762939453125,53.6834716796875,15.4022216796875,56.9732666015625
-0.20263671875,0.303466796875,1.012939453125,-1.12152099609375,-12.2528076171875,-2.95257568359375,52.63671875,15.5517578125,55.926513671875
-0.14208984375,0.3271484375,1.0126953125,-0.0762939453125,-13.66424560546875,-2.2430419921875,52.63671875,15.5517578125,55.926513671875
-0.12744140625,0.30712890625,1.017333984375,0.18310546875,-10.49041748046875,-1.9073486328125,52.63671875,15.5517578125,55.926513671875
-0.142578125,0.28173828125,1.010498046875,0.18310546875,-9.70458984375,-2.83050537109375,52.63671875,15.5517578125,55.926513671875
-0.122802734375,0.291015625,0.9912109375,0.03814697265625,-4.302978515625,-4.150390625,52.4871826171875,16.2994384765625,54.5806884765625
-0.06103515625,0.302490234375,0.939453125,-4.92095947265625,-3.83758544921875,-2.166748046875,53.533935546875,16.14990234375,55.029296875
-0.08251953125,0.3056640625,0.92138671875,-8.70513916015625,-7.30133056640625,-3.01361083984375,52.03857421875,16.448974609375,53.533935546875
-0.09326171875,0.31298828125,0.948486328125,-8.81195068359375,-14.24407958984375,-3.509521484375,52.03857421875,16.448974609375,53.533935546875
-0.089599609375,0.321533203125,1.012451171875,-7.85064697265625,-21.36993408203125,0.20599365234375,52.03857421875,16.448974609375,53.533935546875
-0.105224609375,0.28466796875,1.0400390625,-12.1917724609375,-19.02008056640625,3.4027099609375,54.730224609375,15.5517578125,54.43115234375
-0.12255859375,0.27685546875,1.0283203125,-16.51763916015625,-13.20648193359375,6.59942626953125,53.9825439453125,16.2994384765625,53.6834716796875
-0.10986328125,0.296875,1.01123046875,-16.16668701171875,-10.9405517578125,5.767822265625,54.43115234375,16.448974609375,52.63671875
-0.106689453125,0.288818359375,0.9931640625,-14.62554931640625,-10.68878173828125,1.04522705078125,54.43115234375,16.448974609375,52.63671875
-0.079833984375,0.28662109375,1.043701171875,-14.0533447265625,-9.25445556640625,1.21307373046875,54.43115234375,16.448974609375,52.63671875
-0.10986328125,0.2880859375,1.0234375,-12.76397705078125,-6.26373291015625,2.17437744140625,54.43115234375,16.448974609375,52.63671875
-0.099609375,0.27978515625,1.007568359375,-12.48931884765625,-3.204345703125,0.45013427734375,53.8330078125,16.448974609375,52.337646484375
-0.08544921875,0.30126953125,0.99462890625,-9.2620849609375,-1.65557861328125,-2.81524658203125,53.533935546875,17.047119140625,53.23486328125
-0.09130859375,0.3037109375,0.998779296875,-8.5906982421875,2.23541259765625,-6.34765625,53.6834716796875,16.8975830078125,53.9825439453125
-0.077392578125,0.281494140625,0.949462890625,-9.1552734375,3.71551513671875,-8.99505615234375,53.6834716796875,16.8975830078125,53.9825439453125
-0.085205078125,0.298095703125,0.969482421875,-9.1552734375,0.274658203125,-10.7269287109375,53.6834716796875,16.8975830078125,53.9825439453125
-0.087646484375,0.301513671875,0.99951171875,-8.9569091796875,-3.76129150390625,-8.8043212890625,53.6834716796875,16.8975830078125,53.9825439453125
-0.111083984375,0.286865234375,1.003662109375,-9.48333740234375,-3.33404541015625,-8.41522216796875,54.43115234375,17.645263671875,52.03857421875
-0.133056640625,0.27734375,1.027099609375,-10.9405517578125,-0.43487548828125,-6.11114501953125,54.132080078125,18.841552734375,52.63671875
-0.139892578125,0.27001953125,1.030029296875,-12.48931884765625,2.60162353515625,-7.63702392578125,53.3843994140625,18.0938720703125,50.6927490234375
-0.13427734375,0.289794921875,1.039794921875,-13.64898681640625,4.41741943359375,-7.4310302734375,53.3843994140625,18.0938720703125,50.6927490234375
-0.133056640625,0.287841796875,1.039306640625,-10.8489990234375,6.84356689453125,-8.6517333984375,53.3843994140625,18.0938720703125,50.6927490234375
-0.1318359375,0.29248046875,1.043701171875,-9.8876953125,8.5296630859375,-9.4757080078125,53.3843994140625,18.0938720703125,50.6927490234375
-0.146728515625,0.286865234375,1.041748046875,-8.75091552734375,13.19122314453125,-10.833740234375,53.9825439453125,19.2901611328125,51.5899658203125
-0.13037109375,0.2822265625,1.02197265625,-8.93402099609375,15.52581787109375,-9.86480712890625,52.7862548828125,18.0938720703125,51.2908935546875
-0.122802734375,0.287841796875,1.0166015625,-9.09423828125,16.16668701171875,-12.4053955078125,54.2816162109375,18.6920166015625,51.2908935546875
-0.12744140625,0.290771484375,1.011962890625,-8.78143310546875,15.41900634765625,-13.14544677734375,54.2816162109375,18.6920166015625,51.2908935546875
-0.12109375,0.30419921875,1.01513671875,-6.41632080078125,15.49530029296875,-15.655517578125,54.2816162109375,18.6920166015625,51.2908935546875
-0.1298828125,0.289306640625,1.01416015625,-6.26373291015625,12.50457763671875,-14.97650146484375,54.2816162109375,18.0938720703125,50.9918212890625
-0.121337890625,0.286376953125,1.0146484375,-7.13348388671875,11.260986328125,-12.542724609375,55.029296875,20.037841796875,50.84228515625
-0.140380859375,0.28515625,1.019287109375,-8.35418701171875,10.68878173828125,-10.13946533203125,53.3843994140625,19.2901611328125,51.8890380859375
-0.139404296875,0.29443359375,1.009765625,-7.720947265625,10.8642578125,-10.467529296875,53.9825439453125,21.3836669921875,50.3936767578125
-0.14794921875,0.281005859375,1.0205078125,-5.91278076171875,12.054443359375,-9.60540771484375,53.9825439453125,21.3836669921875,50.3936767578125
-0.1220703125,0.29931640625,1.006591796875,-7.66754150390625,11.749267578125,-8.99505615234375,53.9825439453125,21.3836669921875,50.3936767578125
-0.11181640625,0.287109375,1.012451171875,-6.75201416015625,10.92529296875,-8.9874267578125,54.8797607421875,20.4864501953125,50.0946044921875
-0.128173828125,0.29052734375,1.01953125,-6.15692138671875,8.53729248046875,-7.3699951171875,53.3843994140625,19.5892333984375,52.4871826171875
-0.154541015625,0.2822265625,1.043212890625,-5.82122802734375,7.43865966796875,-6.47735595703125,53.0853271484375,21.3836669921875,50.9918212890625
-0.14501953125,0.2861328125,1.021484375,-5.22613525390625,8.23211669921875,-7.60650634765625,55.029296875,21.533203125,50.244140625
-0.146728515625,0.2734375,1.017822265625,-5.0811767578125,8.0413818359375,-7.9498291015625,55.029296875,21.533203125,50.244140625
-0.151611328125,0.2783203125,1.0244140625,-5.0811767578125,7.537841796875,-8.3160400390625,55.029296875,21.533203125,50.244140625
-0.15087890625,0.278076171875,1.0185546875,-5.4931640625,7.63702392578125,-6.011962890625,56.0760498046875,22.2808837890625,51.5899658203125
-0.153076171875,0.27880859375,1.0087890625,-5.27191162109375,7.19451904296875,-6.61468505859375,53.533935546875,23.626708984375,50.543212890625
-0.160400390625,0.27001953125,1.01220703125,-4.8065185546875,7.13348388671875,-7.45391845703125,54.2816162109375,22.8790283203125,50.0946044921875
-0.16943359375,0.2744140625,1.029052734375,-4.8980712890625,7.110595703125,-7.07244873046875,54.2816162109375,22.8790283203125,50.0946044921875
-0.155029296875,0.284423828125,1.01123046875,-3.6773681640625,7.049560546875,-7.62939453125,54.2816162109375,22.8790283203125,50.0946044921875
-0.151123046875,0.270263671875,1.008056640625,-4.73785400390625,7.27081298828125,-2.20489501953125,54.2816162109375,22.8790283203125,50.0946044921875
-0.15673828125,0.27490234375,1.0126953125,-5.11932373046875,8.07952880859375,-3.34930419921875,54.730224609375,22.430419921875,50.543212890625
-0.1396484375,0.270751953125,1.009521484375,-5.340576171875,7.9345703125,-3.387451171875,54.2816162109375,24.0753173828125,50.6927490234375
-0.14306640625,0.280517578125,1.010498046875,-4.95147705078125,8.38470458984375,-4.2572021484375,53.8330078125,24.52392578125,49.945068359375
-0.144775390625,0.27392578125,1.01513671875,-4.82940673828125,8.2855224609375,-4.1656494140625,53.8330078125,24.52392578125,49.945068359375
-0.136962890625,0.272216796875,1.009033203125,-5.11932373046875,7.7056884765625,-4.70733642578125,53.8330078125,24.52392578125,49.945068359375
-0.140625,0.279296875,1.0078125,-4.852294921875,7.537841796875,-5.1727294921875,53.8330078125,24.52392578125,49.945068359375
-0.13330078125,0.278076171875,1.005859375,-5.3253173828125,6.6986083984375,-5.31005859375,53.8330078125,24.224853515625,50.84228515625
-0.134765625,0.277099609375,1.01220703125,-5.706787109375,4.98199462890625,-4.3792724609375,54.2816162109375,24.3743896484375,51.2908935546875
-0.141845703125,0.27734375,1.02197265625,-5.8746337890625,2.6397705078125,-3.91387939453125,53.9825439453125,25.5706787109375,50.6927490234375
-0.152099609375,0.275634765625,1.0361328125,-3.9520263671875,1.18255615234375,-2.70843505859375,53.9825439453125,25.5706787109375,50.6927490234375
-0.160400390625,0.270263671875,1.0419921875,-6.41632080078125,1.33514404296875,-1.77001953125,53.9825439453125,25.5706787109375,50.6927490234375
-0.166259765625,0.251953125,1.051513671875,-6.28662109375,1.89208984375,-1.3427734375,53.9825439453125,25.5706787109375,50.6927490234375
-0.1728515625,0.274169921875,1.0537109375,-5.9356689453125,3.91387939453125,-1.47247314453125,53.23486328125,26.019287109375,49.0478515625
-0.160888671875,0.27880859375,1.050537109375,-4.9896240234375,4.608154296875,-1.434326171875,54.132080078125,25.72021484375,49.64599609375
-0.158203125,0.274169921875,1.033447265625,-4.35638427734375,4.63104248046875,-2.471923828125,55.029296875,26.617431640625,50.84228515625
-0.15380859375,0.274169921875,1.03857421875,-3.10516357421875,3.65447998046875,-2.99835205078125,55.029296875,26.617431640625,50.84228515625
-0.150390625,0.272705078125,1.0361328125,-1.96075439453125,2.227783203125,-3.0059814453125,55.029296875,26.617431640625,50.84228515625
-0.157470703125,0.27392578125,1.026123046875,-0.92315673828125,0.02288818359375,-3.76129150390625,55.029296875,26.617431640625,50.84228515625
-0.155029296875,0.26953125,1.012939453125,-1.01470947265625,1.7852783203125,-3.7384033203125,54.730224609375,27.215576171875,50.84228515625
-0.162841796875,0.27001953125,1.010009765625,-1.22833251953125,1.74713134765625,-3.6163330078125,54.8797607421875,27.9632568359375,49.4964599609375
-0.158447265625,0.267333984375,1.014892578125,-1.6937255859375,1.56402587890625,-3.173828125,54.43115234375,28.411865234375,51.141357421875
-0.151611328125,0.271240234375,1.011474609375,-3.89862060546875,0.762939453125,-2.166748046875,54.43115234375,28.411865234375,51.141357421875
-0.15234375,0.275390625,1.01171875,-2.593994140625,-0.35858154296875,-1.50299072265625,54.43115234375,28.411865234375,51.141357421875
-0.15673828125,0.2705078125,1.009521484375,-2.81524658203125,-0.81634521484375,-0.42724609375,54.5806884765625,27.6641845703125,50.6927490234375
-0.15966796875,0.274169921875,1.0224609375,-3.326416015625,-1.15203857421875,1.89971923828125,55.328369140625,26.617431640625,50.244140625
-0.164306640625,0.27734375,1.0185546875,-3.173828125,-1.190185546875,-0.3814697265625,54.730224609375,27.813720703125,49.945068359375
-0.161376953125,0.27587890625,1.002197265625,-2.9754638671875,-0.12969970703125,-1.068115234375,54.2816162109375,28.2623291015625,50.0946044921875
-0.156982421875,0.278076171875,1.019775390625,-2.66265869140625,-0.091552734375,-1.03759765625,54.2816162109375,28.2623291015625,50.0946044921875
-0.152587890625,0.278076171875,1.013427734375,-2.41851806640625,-0.74005126953125,-0.86212158203125,54.2816162109375,28.2623291015625,50.0946044921875
-0.160400390625,0.2763671875,1.025390625,-1.80816650390625,-0.00762939453125,0.2593994140625,55.62744140625,28.411865234375,50.543212890625
-0.167724609375,0.2744140625,1.02783203125,-1.59454345703125,-1.07574462890625,-0.81634521484375,55.1788330078125,28.5614013671875,49.7955322265625
-0.187255859375,0.25244140625,1.027099609375,-1.8310546875,-0.45013427734375,-0.701904296875,55.328369140625,27.215576171875,50.84228515625
-0.153076171875,0.278076171875,1.029541015625,-1.60980224609375,-1.4801025390625,1.16729736328125,55.029296875,29.608154296875,50.543212890625
-0.1591796875,0.2724609375,1.023681640625,-1.1138916015625,-2.11334228515625,0.6103515625,55.029296875,29.608154296875,50.543212890625
-0.167236328125,0.270751953125,1.02685546875,-0.92315673828125,-2.227783203125,0.02288818359375,55.029296875,29.608154296875,50.543212890625
-0.154296875,0.273681640625,1.02978515625,-0.93841552734375,-2.471923828125,1.1138916015625,54.132080078125,29.30908203125,49.64599609375
-0.150146484375,0.274169921875,1.028076171875,-0.5035400390625,-3.04412841796875,2.40325927734375,53.8330078125,28.7109375,50.84228515625
-0.12841796875,0.272216796875,1.023193359375,0.11444091796875,-3.753662109375,4.57763671875,56.2255859375,28.411865234375,49.945068359375
-0.172607421875,0.26708984375,1.02978515625,-0.12969970703125,-3.19671630859375,2.72369384765625,54.730224609375,29.30908203125,50.543212890625
-0.16455078125,0.26025390625,1.029052734375,-0.0762939453125,-2.8839111328125,1.3580322265625,54.730224609375,29.30908203125,50.543212890625
-0.16259765625,0.266845703125,1.035888671875,-0.60272216796875,-3.082275390625,4.1961669921875,56.0760498046875,30.0567626953125,51.2908935546875
-0.1708984375,0.26416015625,1.0302734375,0.83160400390625,-3.448486328125,2.96783447265625,56.3751220703125,30.0567626953125,51.2908935546875
-0.159912109375,0.263427734375,1.041748046875,0.48065185546875,-2.92205810546875,2.37274169921875,54.8797607421875,30.6549072265625,50.9918212890625
-0.1484375,0.264892578125,1.0380859375,0.8087158203125,-1.97601318359375,2.105712890625,55.62744140625,30.50537109375,51.141357421875
-0.140625,0.262451171875,1.03955078125,0.9002685546875,-4.17327880859375,2.9144287109375,55.1788330078125,30.6549072265625,49.7955322265625
-0.134765625,0.250244140625,1.0244140625,0.77056884765625,-3.7689208984375,3.875732421875,55.62744140625,29.9072265625,50.543212890625
-0.13037109375,0.270263671875,1.025146484375,1.38092041015625,-3.875732421875,1.556396484375,54.5806884765625,30.6549072265625,52.1881103515625
-0.15283203125,0.251220703125,1.036376953125,0.20599365234375,-3.1890869140625,2.61688232421875,54.730224609375,30.804443359375,51.4404296875
-0.14599609375,0.28515625,1.03369140625,0.32806396484375,-0.7781982421875,2.17437744140625,54.8797607421875,30.3558349609375,50.9918212890625
-0.158203125,0.287841796875,1.03662109375,1.45721435546875,0.946044921875,1.28173828125,54.132080078125,30.206298828125,49.945068359375
-0.150634765625,0.27685546875,1.022216796875,2.32696533203125,2.4566650390625,0.57220458984375,55.328369140625,30.206298828125,52.03857421875
-0.146484375,0.270263671875,1.004638671875,2.29644775390625,1.983642578125,-0.75531005859375,55.328369140625,30.206298828125,52.03857421875
-0.11865234375,0.2724609375,0.97802734375,1.41143798828125,0.84686279296875,-0.3204345703125,55.926513671875,30.804443359375,51.4404296875
-0.130126953125,0.269287109375,1.009521484375,0.5340576171875,-4.40216064453125,2.58636474609375,55.62744140625,30.804443359375,51.4404296875
-0.137939453125,0.2529296875,1.02490234375,-0.7171630859375,-2.6092529296875,5.55419921875,55.4779052734375,30.9539794921875,52.1881103515625
-0.146484375,0.24755859375,1.0146484375,-1.68609619140625,1.6326904296875,4.6234130859375,54.5806884765625,30.9539794921875,51.8890380859375
-0.153564453125,0.258056640625,1.006103515625,-1.434326171875,4.66156005859375,3.89862060546875,56.2255859375,29.30908203125,50.84228515625
-0.119384765625,0.259521484375,1.0029296875,-0.46539306640625,4.9591064453125,0.8544921875,56.2255859375,29.30908203125,50.84228515625
-0.11572265625,0.246337890625,1.001953125,-1.93023681640625,3.31878662109375,1.47247314453125,56.2255859375,29.30908203125,50.84228515625
-0.120849609375,0.246826171875,1.00927734375,-0.4730224609375,2.5787353515625,1.30462646484375,56.0760498046875,29.4586181640625,51.8890380859375
-0.13671875,0.247802734375,0.9990234375,-1.312255859375,3.15093994140625,1.45721435546875,55.4779052734375,30.3558349609375,50.6927490234375
-0.132080078125,0.24560546875,0.99560546875,-2.52532958984375,4.52423095703125,0.7781982421875,55.029296875,30.804443359375,52.63671875
-0.125244140625,0.250732421875,1.010009765625,-3.448486328125,4.26483154296875,1.09100341796875,56.3751220703125,30.3558349609375,51.5899658203125
-0.115966796875,0.2568359375,0.99853515625,-2.06756591796875,3.57818603515625,1.36566162109375,56.3751220703125,30.3558349609375,51.5899658203125
-0.111328125,0.259765625,1.01708984375,-4.180908203125,2.716064453125,1.16729736328125,56.3751220703125,30.3558349609375,51.5899658203125
-0.120361328125,0.256591796875,1.020751953125,-4.33349609375,2.12860107421875,1.40380859375,54.5806884765625,30.3558349609375,51.5899658203125
-0.12939453125,0.255615234375,1.038818359375,-4.4097900390625,2.4566650390625,2.50244140625,56.2255859375,30.206298828125,52.03857421875
-0.13720703125,0.261474609375,1.05712890625,-4.55474853515625,2.14385986328125,3.28826904296875,55.926513671875,30.50537109375,51.4404296875
-0.142578125,0.26806640625,1.052490234375,-3.7841796875,3.74603271484375,2.95257568359375,55.926513671875,30.50537109375,51.4404296875
-0.143798828125,0.2578125,1.055419921875,-3.25775146484375,5.21087646484375,2.1820068359375,55.926513671875,30.50537109375,51.4404296875
-0.1416015625,0.2646484375,1.049072265625,-2.3956298828125,5.462646484375,0.95367431640625,55.926513671875,30.50537109375,51.4404296875
-0.138427734375,0.258544921875,1.053955078125,-1.373291015625,4.93621826171875,0.89263916015625,55.4779052734375,30.0567626953125,50.9918212890625
-0.134765625,0.25732421875,1.061767578125,-0.49591064453125,4.6539306640625,0.84686279296875,55.926513671875,30.50537109375,50.84228515625
-0.131591796875,0.253173828125,1.049072265625,0.1220703125,5.035400390625,1.15203857421875,56.2255859375,29.9072265625,52.03857421875
-0.12890625,0.250732421875,1.0322265625,-0.11444091796875,5.8135986328125,0.79345703125,56.2255859375,29.9072265625,52.03857421875
-0.1318359375,0.25830078125,1.0390625,0.2899169921875,6.14166259765625,0.244140625,56.2255859375,29.9072265625,52.03857421875
-0.12451171875,0.252197265625,1.0302734375,0.20599365234375,6.2408447265625,0.20599365234375,57.122802734375,31.103515625,51.739501953125
-0.1298828125,0.25537109375,1.03515625,0.2899169921875,5.9814453125,0.72479248046875,55.1788330078125,29.7576904296875,50.6927490234375
-0.12890625,0.250732421875,1.032470703125,0.46539306640625,4.02069091796875,0.5950927734375,55.029296875,30.804443359375,52.337646484375
-0.130615234375,0.248779296875,1.028076171875,0.34332275390625,5.42449951171875,0.38909912109375,55.029296875,30.804443359375,52.337646484375
-0.110107421875,0.253173828125,1.029052734375,0.37384033203125,4.96673583984375,0.61798095703125,55.029296875,30.804443359375,52.337646484375
-0.110595703125,0.252685546875,1.02783203125,0.18310546875,4.57763671875,0.61798095703125,55.029296875,30.804443359375,52.337646484375
-0.127197265625,0.25244140625,1.028564453125,-0.17547607421875,4.05120849609375,0.885009765625,55.62744140625,30.804443359375,50.84228515625
-0.129150390625,0.25390625,1.02294921875,-0.34332275390625,3.71551513671875,0.6866455078125,56.524658203125,29.9072265625,51.4404296875
-0.12890625,0.255615234375,1.019287109375,-0.5340576171875,3.70025634765625,0.46539306640625,55.1788330078125,30.9539794921875,50.9918212890625
-0.130126953125,0.2587890625,1.020263671875,-0.8544921875,3.68499755859375,0.06866455078125,55.1788330078125,30.9539794921875,50.9918212890625
-0.131103515625,0.2509765625,1.019775390625,-1.04522705078125,3.53240966796875,0.48065185546875,55.1788330078125,30.9539794921875,50.9918212890625
-0.13232421875,0.25927734375,1.0283203125,-1.2359619140625,3.265380859375,0.5645751953125,55.926513671875,29.30908203125,50.84228515625
-0.131591796875,0.258056640625,1.026611328125,-1.02996826171875,2.7923583984375,0.640869140625,55.4779052734375,30.6549072265625,51.5899658203125
-0.13671875,0.255126953125,1.028076171875,-1.10626220703125,3.05938720703125,0.29754638671875,56.3751220703125,30.3558349609375,51.2908935546875
-0.1435546875,0.2568359375,1.04052734375,-0.8544921875,3.36456298828125,1.18255615234375,56.3751220703125,30.3558349609375,51.2908935546875
-0.1435546875,0.251708984375,1.033935546875,-0.701904296875,3.66973876953125,0.701904296875,56.3751220703125,30.3558349609375,51.2908935546875
-0.1484375,0.257568359375,1.035400390625,-0.2899169921875,4.23431396484375,0.06866455078125,56.3751220703125,30.3558349609375,51.2908935546875
-0.1552734375,0.252685546875,1.029296875,-0.091552734375,5.85174560546875,-0.244140625,56.524658203125,30.206298828125,52.337646484375
-0.136474609375,0.2509765625,1.015869140625,-0.58746337890625,3.2958984375,0.70953369140625,55.328369140625,29.9072265625,52.337646484375
-0.133544921875,0.25634765625,1.01953125,-0.84686279296875,2.227783203125,0.08392333984375,54.730224609375,29.9072265625,51.4404296875
-0.140625,0.255615234375,1.017578125,-0.87738037109375,2.18963623046875,-0.0762939453125,54.730224609375,29.9072265625,51.4404296875
-0.137451171875,0.25341796875,1.01513671875,-1.13677978515625,1.617431640625,0.60272216796875,54.730224609375,29.9072265625,51.4404296875
-0.13916015625,0.253662109375,1.01953125,-1.708984375,0.0152587890625,0.66375732421875,54.8797607421875,29.7576904296875,50.6927490234375
-0.1337890625,0.26220703125,1.017333984375,-1.5106201171875,2.044677734375,0.20599365234375,56.3751220703125,30.3558349609375,51.8890380859375
-0.133056640625,0.26171875,1.028564453125,-1.52587890625,1.57928466796875,0.00762939453125,55.328369140625,29.30908203125,51.141357421875
-0.13525390625,0.25634765625,1.019287109375,-1.54876708984375,1.74713134765625,-0.19073486328125,55.62744140625,31.103515625,51.739501953125
-0.132568359375,0.254638671875,1.01708984375,-1.953125,1.6632080078125,-1.953125,55.62744140625,31.103515625,51.739501953125
-0.136962890625,0.253662109375,1.023193359375,-1.9989013671875,1.65557861328125,0.41961669921875,55.62744140625,31.103515625,51.739501953125
-0.13818359375,0.25341796875,1.033447265625,-2.0904541015625,2.0904541015625,1.02996826171875,55.7769775390625,29.7576904296875,51.8890380859375
-0.139404296875,0.252197265625,1.03662109375,-2.1820068359375,2.7923583984375,0.6866455078125,54.8797607421875,30.0567626953125,51.5899658203125
-0.13916015625,0.249755859375,1.034912109375,-1.70135498046875,3.570556640625,0.701904296875,55.1788330078125,30.0567626953125,52.1881103515625
-0.145263671875,0.263916015625,1.038818359375,-1.9073486328125,4.53948974609375,0.396728515625,55.1788330078125,30.0567626953125,52.1881103515625
-0.14599609375,0.25244140625,1.029052734375,-1.7242431640625,4.37164306640625,0.19073486328125,55.1788330078125,30.0567626953125,52.1881103515625
-0.140869140625,0.253662109375,1.03271484375,-1.15966796875,4.23431396484375,0.20599365234375,55.1788330078125,30.0567626953125,52.1881103515625
-0.142822265625,0.251220703125,1.030517578125,-0.9765625,3.24249267578125,0.1678466796875,55.926513671875,30.50537109375,50.84228515625
-0.14794921875,0.25439453125,1.02099609375,-1.18255615234375,2.7618408203125,0.45013427734375,55.328369140625,30.50537109375,51.739501953125
-0.1513671875,0.245361328125,1.026123046875,-1.51824951171875,2.5177001953125,0.90789794921875,57.122802734375,30.206298828125,51.4404296875
-0.154541015625,0.2529296875,1.02734375,-1.57928466796875,3.05938720703125,0.823974609375,57.122802734375,30.206298828125,51.4404296875
-0.158447265625,0.25244140625,1.037841796875,-1.5106201171875,3.56292724609375,0.8544921875,57.122802734375,30.206298828125,51.4404296875
-0.15234375,0.2578125,1.040771484375,-1.36566162109375,3.631591796875,0.95367431640625,55.328369140625,31.103515625,52.03857421875
-0.152099609375,0.26123046875,1.034423828125,-0.77056884765625,3.2806396484375,0.75531005859375,55.328369140625,31.103515625,52.03857421875
-0.14990234375,0.26123046875,1.02978515625,-0.0457763671875,3.5858154296875,0.152587890625,56.6741943359375,30.0567626953125,50.9918212890625
-0.146728515625,0.256103515625,1.017333984375,0.30517578125,2.9144287109375,0.3204345703125,56.6741943359375,30.0567626953125,50.9918212890625
-0.147216796875,0.25634765625,1.031494140625,0.213623046875,2.55584716796875,0.6256103515625,56.6741943359375,30.0567626953125,50.9918212890625
-0.141357421875,0.249267578125,1.028564453125,0.1983642578125,2.40325927734375,0.7171630859375,56.6741943359375,30.0567626953125,50.9918212890625
-0.143310546875,0.246826171875,1.028076171875,-0.091552734375,2.49481201171875,0.89263916015625,57.122802734375,30.804443359375,52.03857421875
-0.155029296875,0.24853515625,1.027099609375,-0.41961669921875,2.57110595703125,1.220703125,56.3751220703125,29.7576904296875,51.2908935546875
-0.1435546875,0.246826171875,1.0224609375,-0.52642822265625,2.60162353515625,1.6326904296875,55.328369140625,30.206298828125,50.84228515625
-0.140869140625,0.248291015625,1.03662109375,-0.518798828125,2.2430419921875,1.28173828125,55.328369140625,30.206298828125,50.84228515625
-0.142822265625,0.246826171875,1.040283203125,-0.80108642578125,0.0152587890625,1.2969970703125,55.328369140625,30.206298828125,50.84228515625
-0.141357421875,0.25,1.04296875,-0.41961669921875,1.6021728515625,2.17437744140625,56.0760498046875,31.5521240234375,50.9918212890625
-0.145263671875,0.248291015625,1.04345703125,-0.7171630859375,1.18255615234375,1.99127197265625,55.7769775390625,29.7576904296875,51.8890380859375
-0.17138671875,0.239013671875,1.04833984375,-0.1220703125,1.36566162109375,1.708984375,55.328369140625,31.103515625,51.4404296875
-0.141845703125,0.2568359375,1.04541015625,1.0223388671875,2.25830078125,1.24359130859375,56.2255859375,30.804443359375,51.4404296875
-0.150634765625,0.25732421875,1.04052734375,1.190185546875,3.13568115234375,1.373291015625,56.2255859375,30.804443359375,51.4404296875
-0.143798828125,0.259521484375,1.032958984375,1.48773193359375,3.62396240234375,0.91552734375,56.2255859375,30.804443359375,51.4404296875
-0.14013671875,0.259765625,1.027099609375,1.922607421875,3.21197509765625,0.1678466796875,55.62744140625,30.50537109375,52.03857421875
-0.12548828125,0.258544921875,1.022216796875,2.044677734375,2.3193359375,0.885009765625,55.328369140625,29.608154296875,51.141357421875
-0.14892578125,0.258056640625,1.03076171875,2.0599365234375,2.5177001953125,1.06048583984375,56.2255859375,31.103515625,52.03857421875
-0.151123046875,0.254638671875,1.012451171875,1.251220703125,3.1585693359375,1.15966796875,55.62744140625,31.103515625,51.739501953125
-0.149169921875,0.255126953125,1.010498046875,0.762939453125,2.83050537109375,0.7476806640625,55.62744140625,31.103515625,51.739501953125
-0.149169921875,0.25634765625,1.004150390625,0.46539306640625,2.532958984375,1.6326904296875,55.62744140625,31.103515625,51.739501953125
-0.14208984375,0.2578125,1.020263671875,0.2593994140625,2.01416015625,2.38800048828125,56.3751220703125,31.2530517578125,52.1881103515625
-0.144287109375,0.256103515625,1.020751953125,-0.0457763671875,1.861572265625,2.5177001953125,55.7769775390625,30.9539794921875,51.5899658203125
-0.14599609375,0.254638671875,1.01416015625,-0.05340576171875,2.44140625,1.8463134765625,55.328369140625,30.50537109375,51.739501953125
-0.13818359375,0.25439453125,1.009033203125,-1.89208984375,2.3956298828125,1.88446044921875,55.029296875,30.206298828125,52.03857421875
-0.14453125,0.253662109375,1.014404296875,-0.20599365234375,2.86102294921875,0.8697509765625,55.926513671875,30.804443359375,52.03857421875
-0.14404296875,0.2548828125,1.029541015625,-0.4119873046875,3.21197509765625,1.35040283203125,55.4779052734375,31.5521240234375,53.0853271484375
-0.134033203125,0.25146484375,1.027587890625,-1.06048583984375,2.62451171875,1.16729736328125,55.926513671875,30.206298828125,51.4404296875
-0.1298828125,0.253662109375,1.028564453125,-1.2664794921875,1.46484375,1.3885498046875,56.0760498046875,29.7576904296875,51.5899658203125
-0.135986328125,0.254150390625,1.029541015625,-1.45721435546875,1.47247314453125,1.44195556640625,56.524658203125,30.206298828125,52.03857421875
-0.13330078125,0.25830078125,1.046630859375,-1.068115234375,1.53350830078125,1.007080078125,56.524658203125,30.206298828125,52.03857421875
-0.1357421875,0.257568359375,1.04150390625,-0.92315673828125,1.94549560546875,1.0223388671875,56.524658203125,30.206298828125,52.03857421875
-0.13330078125,0.255859375,1.0341796875,-0.58746337890625,1.953125,0.23651123046875,56.6741943359375,30.6549072265625,50.6927490234375
-0.131103515625,0.253662109375,1.032470703125,0.02288818359375,2.22015380859375,-0.30517578125,56.0760498046875,29.1595458984375,51.5899658203125
-0.134521484375,0.257568359375,1.035400390625,-0.23651123046875,2.5177001953125,-0.244140625,57.421875,29.9072265625,51.4404296875
-0.1337890625,0.252197265625,1.033203125,-0.152587890625,3.19671630859375,-0.30517578125,55.1788330078125,30.6549072265625,51.5899658203125
-0.1328125,0.264404296875,1.029296875,-0.51116943359375,3.509521484375,-0.55694580078125,55.1788330078125,30.6549072265625,51.5899658203125
-0.1357421875,0.25390625,1.0302734375,-0.030517578125,2.9449462890625,-0.66375732421875,55.1788330078125,30.6549072265625,51.5899658203125
-0.137939453125,0.25341796875,1.030029296875,-0.1678466796875,2.5177001953125,-0.61798095703125,55.926513671875,31.402587890625,50.84228515625
-0.136474609375,0.2529296875,1.03662109375,-0.17547607421875,1.8310546875,-0.030517578125,55.62744140625,31.70166015625,53.23486328125
-0.143798828125,0.252197265625,1.035888671875,-1.953125,1.73187255859375,-0.244140625,55.1788330078125,30.3558349609375,51.5899658203125
-0.14404296875,0.254150390625,1.01611328125,-0.09918212890625,1.739501953125,-0.48828125,55.1788330078125,30.3558349609375,51.5899658203125
-0.14697265625,0.25390625,1.025146484375,0.1068115234375,1.62506103515625,-0.274658203125,55.1788330078125,30.3558349609375,51.5899658203125
-0.148193359375,0.254638671875,1.027587890625,0.31280517578125,1.556396484375,-0.69427490234375,55.1788330078125,30.3558349609375,51.5899658203125
-0.147216796875,0.249267578125,1.02783203125,0.1983642578125,1.800537109375,-0.732421875,55.4779052734375,30.0567626953125,51.8890380859375
-0.146240234375,0.25634765625,1.0283203125,-0.08392333984375,2.5787353515625,-0.78582763671875,56.0760498046875,29.4586181640625,51.8890380859375
-0.15234375,0.25439453125,1.02197265625,-0.19073486328125,2.9754638671875,-0.3204345703125,55.029296875,31.402587890625,52.03857421875
-0.148193359375,0.2548828125,1.03076171875,-0.579833984375,2.32696533203125,-0.70953369140625,55.029296875,31.402587890625,52.03857421875
-0.14892578125,0.254638671875,1.028076171875,-0.3204345703125,2.00653076171875,-0.31280517578125,55.029296875,31.402587890625,52.03857421875
-0.15283203125,0.257568359375,1.026123046875,-0.244140625,1.35040283203125,0.00762939453125,54.8797607421875,30.0567626953125,51.5899658203125
-0.15380859375,0.250732421875,1.02685546875,-0.6561279296875,1.56402587890625,0.1983642578125,54.5806884765625,30.6549072265625,50.3936767578125
-0.158203125,0.254150390625,1.0322265625,-0.8697509765625,1.708984375,0.30517578125,55.926513671875,30.804443359375,50.84228515625
-0.170654296875,0.259033203125,1.02783203125,-0.6866455078125,1.99127197265625,0.4119873046875,55.926513671875,30.206298828125,51.4404296875
-0.15234375,0.253662109375,1.023681640625,-0.69427490234375,2.3651123046875,0.41961669921875,55.926513671875,30.206298828125,51.4404296875
-0.15283203125,0.26171875,1.022705078125,-0.46539306640625,1.70135498046875,0.57220458984375,55.926513671875,30.206298828125,51.4404296875
-0.149658203125,0.25830078125,1.0205078125,-0.29754638671875,1.312255859375,0.701904296875,55.7769775390625,30.3558349609375,50.9918212890625
-0.152587890625,0.256103515625,1.02734375,-0.45013427734375,1.129150390625,0.67901611328125,55.4779052734375,30.9539794921875,51.2908935546875
-0.15185546875,0.257080078125,1.0224609375,-0.2899169921875,1.53350830078125,0.5645751953125,54.730224609375,30.206298828125,52.03857421875
-0.1484375,0.25537109375,1.028076171875,-0.14495849609375,2.0904541015625,0.640869140625,54.730224609375,30.206298828125,52.03857421875
-0.1484375,0.253662109375,1.027587890625,-0.6866455078125,2.349853515625,1.07574462890625,54.730224609375,30.206298828125,52.03857421875
-0.14453125,0.25390625,1.032958984375,-0.55694580078125,2.5482177734375,0.67901611328125,54.730224609375,30.206298828125,52.03857421875
-0.136962890625,0.25830078125,1.046630859375,-0.396728515625,2.5634765625,0.2593994140625,55.7769775390625,29.7576904296875,50.6927490234375
-0.142822265625,0.252685546875,1.024658203125,-0.54168701171875,1.96075439453125,0.69427490234375,56.0760498046875,31.2530517578125,51.8890380859375
-0.140869140625,0.255859375,1.027587890625,-0.2288818359375,1.74713134765625,0.5340576171875,55.7769775390625,30.6549072265625,51.8890380859375
-0.139404296875,0.252685546875,1.0458984375,-0.5340576171875,1.1444091796875,0.7171630859375,55.7769775390625,30.6549072265625,51.8890380859375
-0.1376953125,0.25537109375,1.028076171875,-0.5340576171875,1.13677978515625,0.92315673828125,55.7769775390625,30.6549072265625,51.8890380859375
-0.138916015625,0.2548828125,1.024658203125,-0.6256103515625,0.7476806640625,0.8392333984375,55.029296875,30.804443359375,52.03857421875
-0.141845703125,0.260498046875,1.02392578125,-0.32806396484375,1.0223388671875,-0.2593994140625,55.62744140625,31.402587890625,51.141357421875
-0.14794921875,0.235107421875,1.02197265625,-0.37384033203125,1.79290771484375,-0.1068115234375,56.2255859375,29.9072265625,52.03857421875
-0.140625,0.2529296875,1.033935546875,-0.58746337890625,2.18963623046875,0.0457763671875,56.2255859375,29.9072265625,52.03857421875
-0.142333984375,0.255615234375,1.029541015625,-0.8544921875,2.349853515625,0.6561279296875,56.2255859375,29.9072265625,52.03857421875
-0.146484375,0.255859375,1.036865234375,-0.34332275390625,2.66265869140625,0.2899169921875,56.2255859375,29.9072265625,52.03857421875
-0.149169921875,0.25927734375,1.019287109375,-0.640869140625,2.38800048828125,0.09918212890625,55.7769775390625,30.0567626953125,52.1881103515625
-0.1455078125,0.25390625,1.021484375,-0.152587890625,2.03704833984375,0.74005126953125,55.926513671875,29.30908203125,52.03857421875
-0.146728515625,0.254150390625,1.027587890625,-0.12969970703125,1.8768310546875,0.84686279296875,56.3751220703125,30.3558349609375,51.2908935546875
-0.1484375,0.26025390625,1.02734375,-0.06866455078125,2.37274169921875,0.52642822265625,56.3751220703125,30.3558349609375,51.2908935546875
-0.145751953125,0.256591796875,1.03662109375,0.3204345703125,2.20489501953125,0.518798828125,56.3751220703125,30.3558349609375,51.2908935546875
-0.14892578125,0.256103515625,1.025634765625,-0.1220703125,1.9378662109375,0.30517578125,55.62744140625,29.608154296875,51.4404296875
-0.14794921875,0.25341796875,1.022216796875,0.091552734375,2.166748046875,-0.16021728515625,55.7769775390625,29.1595458984375,51.2908935546875
-0.14501953125,0.254638671875,1.021240234375,-0.22125244140625,2.0599365234375,0.31280517578125,56.0760498046875,30.3558349609375,51.8890380859375
-0.136962890625,0.255126953125,1.024169921875,-0.55694580078125,1.62506103515625,0.396728515625,56.0760498046875,30.3558349609375,51.8890380859375
-0.140625,0.25,1.027099609375,-0.7171630859375,0.5645751953125,0.3204345703125,56.0760498046875,30.3558349609375,51.8890380859375
-0.137451171875,0.2548828125,1.03955078125,-1.0528564453125,0.54168701171875,0.89263916015625,56.0760498046875,30.3558349609375,51.8890380859375
-0.146728515625,0.255126953125,1.033447265625,-0.762939453125,-0.08392333984375,0.83160400390625,57.122802734375,30.206298828125,52.63671875
-0.142333984375,0.25341796875,1.034912109375,-0.701904296875,0.55694580078125,1.09100341796875,55.62744140625,30.206298828125,51.141357421875
-0.1396484375,0.263916015625,1.027587890625,-0.23651123046875,0.99945068359375,0.5035400390625,56.6741943359375,29.7576904296875,51.5899658203125
-0.131591796875,0.259521484375,1.02880859375,0.41961669921875,1.9378662109375,-0.4425048828125,56.6741943359375,29.7576904296875,51.5899658203125
-0.13037109375,0.26220703125,1.0224609375,0.48828125,2.6092529296875,-1.07574462890625,56.6741943359375,29.7576904296875,51.5899658203125
-0.123291015625,0.2578125,1.012939453125,0.4425048828125,2.2125244140625,-1.22833251953125,56.524658203125,30.50537109375,52.03857421875
-0.12744140625,0.257568359375,1.0166015625,0.213623046875,1.434326171875,-0.61798095703125,55.7769775390625,30.3558349609375,50.6927490234375
-0.134521484375,0.250244140625,1.01171875,-0.274658203125,2.14385986328125,-0.2593994140625,56.3751220703125,30.3558349609375,51.5899658203125
-0.13916015625,0.25,1.020751953125,-0.5340576171875,3.02886962890625,0.78582763671875,56.3751220703125,30.3558349609375,50.6927490234375
-0.135986328125,0.2509765625,1.029296875,-0.78582763671875,3.4332275390625,0.69427490234375,56.3751220703125,30.3558349609375,50.6927490234375
-0.139404296875,0.251220703125,1.0302734375,-0.79345703125,3.05938720703125,-0.1678466796875,56.3751220703125,30.3558349609375,50.6927490234375
-0.14306640625,0.2529296875,1.020263671875,-0.762939453125,3.84521484375,-0.52642822265625,55.4779052734375,30.0567626953125,51.8890380859375
-0.142822265625,0.251708984375,1.022705078125,-0.5950927734375,1.4801025390625,-0.396728515625,56.0760498046875,29.7576904296875,51.2908935546875
-0.15185546875,0.250732421875,1.027587890625,-0.8087158203125,1.71661376953125,-0.02288818359375,56.524658203125,30.804443359375,52.63671875
-0.15771484375,0.252685546875,1.03173828125,-1.13677978515625,2.3345947265625,0.3814697265625,56.524658203125,30.804443359375,52.63671875
-0.161376953125,0.25537109375,1.033935546875,-1.30462646484375,3.0975341796875,0.6103515625,56.524658203125,30.804443359375,52.63671875
-0.170166015625,0.26318359375,1.03515625,-0.823974609375,3.6163330078125,-0.1220703125,55.1788330078125,30.3558349609375,51.2908935546875
-0.153564453125,0.259521484375,1.033203125,-0.4730224609375,3.173828125,-0.67901611328125,56.2255859375,30.50537109375,50.84228515625
-0.1435546875,0.26318359375,1.033935546875,-0.28228759765625,3.88336181640625,-0.48828125,56.2255859375,30.804443359375,51.4404296875
-0.1494140625,0.259765625,1.026123046875,0.06103515625,1.0833740234375,-0.23651123046875,55.4779052734375,30.6549072265625,49.7955322265625
-0.151123046875,0.25927734375,1.020263671875,-0.14495849609375,0.60272216796875,-0.213623046875,55.4779052734375,30.6549072265625,49.7955322265625
-0.1513671875,0.25537109375,1.020263671875,-0.701904296875,0.640869140625,0.29754638671875,55.4779052734375,30.6549072265625,49.7955322265625
-0.156005859375,0.25537109375,1.027099609375,-1.1138916015625,1.09100341796875,1.251220703125,55.328369140625,30.206298828125,52.63671875
-0.15234375,0.255126953125,1.03369140625,-0.8697509765625,1.64031982421875,1.129150390625,56.0760498046875,30.6549072265625,51.2908935546875
-0.148193359375,0.255126953125,1.0380859375,-0.8544921875,3.0975341796875,0.87738037109375,56.2255859375,31.103515625,52.03857421875
-0.141845703125,0.254150390625,1.031982421875,-0.31280517578125,3.45611572265625,0.26702880859375,56.2255859375,31.103515625,52.03857421875
-0.138427734375,0.253662109375,1.023681640625,0.5645751953125,2.64739990234375,-0.16021728515625,56.2255859375,31.103515625,52.03857421875
-0.132568359375,0.2529296875,1.020263671875,0.57220458984375,1.617431640625,-0.29754638671875,56.2255859375,31.103515625,52.03857421875
-0.13330078125,0.2470703125,1.025390625,-0.1220703125,1.617431640625,0.35858154296875,56.2255859375,31.103515625,52.03857421875
-0.14013671875,0.25,1.02587890625,-0.91552734375,1.068115234375,0.732421875,54.5806884765625,30.0567626953125,50.9918212890625
-0.1416015625,0.249755859375,1.032470703125,-1.01470947265625,1.33514404296875,0.946044921875,55.62744140625,31.103515625,52.337646484375
-0.148193359375,0.251708984375,1.02783203125,-1.35040283203125,2.37274169921875,0.6256103515625,55.926513671875,31.103515625,52.03857421875
-0.147216796875,0.25146484375,1.037353515625,-1.16729736328125,2.54058837890625,0.335693359375,55.029296875,29.9072265625,50.244140625
-0.14404296875,0.2548828125,1.02294921875,-0.72479248046875,1.79290771484375,0.18310546875,55.62744140625,31.103515625,52.63671875
-0.148193359375,0.2548828125,1.046142578125,-0.6103515625,1.3580322265625,0.49591064453125,56.9732666015625,31.8511962890625,52.4871826171875
-0.1513671875,0.259521484375,1.04541015625,-0.57220458984375,2.58636474609375,0.70953369140625,56.2255859375,29.608154296875,52.03857421875
-0.138427734375,0.276611328125,1.022705078125,1.0986328125,1.31988525390625,-0.7171630859375,56.2255859375,29.9072265625,51.739501953125
-0.128173828125,0.26171875,1.030517578125,-0.79345703125,1.47247314453125,1.10626220703125,55.7769775390625,30.9539794921875,52.1881103515625
-0.12548828125,0.249755859375,1.0244140625,-0.2899169921875,-0.74005126953125,0.762939453125,56.0760498046875,30.9539794921875,53.6834716796875
-0.140380859375,0.255615234375,1.0283203125,0.25177001953125,-0.22125244140625,1.0528564453125,54.730224609375,29.608154296875,52.935791015625
-0.153076171875,0.2490234375,1.036376953125,-0.3509521484375,1.18255615234375,0.885009765625,55.029296875,29.608154296875,51.4404296875
-0.150146484375,0.255126953125,1.027099609375,-0.05340576171875,2.6702880859375,-0.701904296875,55.029296875,29.608154296875,51.4404296875
-0.13671875,0.25390625,1.023681640625,-0.16021728515625,2.67791748046875,-0.43487548828125,55.029296875,29.608154296875,51.4404296875
-0.1357421875,0.2568359375,1.020263671875,-0.34332275390625,2.14385986328125,-0.7171630859375,55.029296875,29.608154296875,51.4404296875
-0.132568359375,0.253173828125,1.02294921875,-0.3509521484375,1.7547607421875,-0.152587890625,55.4779052734375,30.0567626953125,51.5899658203125
-0.13427734375,0.252197265625,1.025146484375,-0.4425048828125,1.0833740234375,0.64849853515625,56.82373046875,31.103515625,52.337646484375
-0.143310546875,0.255126953125,1.028564453125,-0.52642822265625,1.24359130859375,0.2593994140625,55.7769775390625,29.4586181640625,51.2908935546875
-0.14501953125,0.25341796875,1.02880859375,-0.87738037109375,1.51824951171875,-0.19073486328125,55.7769775390625,29.4586181640625,51.2908935546875
-0.13916015625,0.258544921875,1.027587890625,-0.78582763671875,2.00653076171875,0.18310546875,55.7769775390625,29.4586181640625,51.2908935546875
-0.140380859375,0.2568359375,1.036376953125,-0.89263916015625,1.89208984375,0.03814697265625,57.2723388671875,30.3558349609375,50.9918212890625
-0.14111328125,0.257568359375,1.033203125,-0.48065185546875,1.9989013671875,0.244140625,55.926513671875,30.804443359375,51.4404296875
-0.144775390625,0.255859375,1.01708984375,-0.29754638671875,1.983642578125,-0.1373291015625,56.0760498046875,30.6549072265625,51.5899658203125
-0.1416015625,0.2548828125,1.02880859375,-0.25177001953125,1.9989013671875,-0.54931640625,56.3751220703125,30.3558349609375,51.5899658203125
-0.14501953125,0.25634765625,1.025390625,-0.20599365234375,1.8157958984375,-0.6561279296875,56.3751220703125,30.3558349609375,51.5899658203125
-0.14111328125,0.254638671875,1.0146484375,-0.08392333984375,1.38092041015625,-0.8697509765625,56.3751220703125,30.3558349609375,51.5899658203125
-0.145751953125,0.2578125,1.02197265625,-0.1678466796875,1.71661376953125,-0.93841552734375,55.7769775390625,30.6549072265625,51.8890380859375
-0.147705078125,0.26513671875,1.024658203125,-0.274658203125,2.00653076171875,-0.34332275390625,55.926513671875,30.50537109375,52.03857421875
-0.14453125,0.25244140625,1.0224609375,-0.732421875,2.69317626953125,-0.22125244140625,57.122802734375,30.50537109375,51.141357421875
-0.138427734375,0.25732421875,1.015625,-0.58746337890625,2.8076171875,1.85394287109375,55.1788330078125,30.3558349609375,53.0853271484375
-0.1435546875,0.252685546875,1.028564453125,-0.5950927734375,2.28118896484375,1.7242431640625,55.1788330078125,30.3558349609375,53.0853271484375
-0.1337890625,0.252685546875,1.017822265625,-1.01470947265625,1.18255615234375,0.030517578125,55.1788330078125,30.3558349609375,53.0853271484375
-0.140869140625,0.251220703125,1.024169921875,-0.79345703125,0.2593994140625,0.274658203125,56.524658203125,28.7109375,52.03857421875
-0.148681640625,0.254150390625,1.025390625,-1.129150390625,0.3509521484375,0.6103515625,54.43115234375,29.608154296875,51.739501953125
-0.14599609375,0.253662109375,1.045166015625,-1.36566162109375,0.95367431640625,0.40435791015625,56.2255859375,29.9072265625,52.337646484375
-0.152099609375,0.25244140625,1.029296875,-1.2969970703125,1.15966796875,0.274658203125,56.2255859375,29.9072265625,52.337646484375
-0.15185546875,0.2578125,1.03515625,-1.36566162109375,1.9073486328125,-0.06103515625,56.2255859375,29.9072265625,52.337646484375
-0.1474609375,0.255615234375,1.0390625,-0.75531005859375,2.57110595703125,-0.31280517578125,56.2255859375,29.9072265625,52.337646484375
-0.14453125,0.25341796875,1.021484375,-0.46539306640625,2.66265869140625,-0.57220458984375,55.328369140625,30.50537109375,52.935791015625
-0.142822265625,0.25537109375,1.028076171875,-0.3814697265625,2.47955322265625,0.00762939453125,56.524658203125,30.206298828125,52.935791015625
-0.143798828125,0.25390625,1.028076171875,-0.23651123046875,2.08282470703125,-0.3204345703125,55.4779052734375,32.4493408203125,52.1881103515625
-0.14306640625,0.2568359375,1.0283203125,-0.28228759765625,0.02288818359375,-0.2899169921875,55.4779052734375,32.4493408203125,52.1881103515625
-0.14306640625,0.25390625,1.028076171875,-0.4119873046875,2.25830078125,-0.16021728515625,55.4779052734375,32.4493408203125,52.1881103515625
-0.1416015625,0.251708984375,1.021484375,-0.40435791015625,1.73187255859375,0.1678466796875,55.4779052734375,32.4493408203125,52.1881103515625
-0.146728515625,0.251953125,1.028564453125,-0.55694580078125,1.2664794921875,-0.12969970703125,56.2255859375,28.7109375,51.739501953125
-0.140625,0.253173828125,1.029296875,-0.1373291015625,1.5869140625,-0.26702880859375,55.1788330078125,30.3558349609375,53.0853271484375
-0.148193359375,0.25048828125,1.02978515625,-0.48065185546875,1.91497802734375,0.45013427734375,56.0760498046875,29.7576904296875,52.4871826171875
-0.1455078125,0.2548828125,1.037353515625,-0.823974609375,1.96075439453125,0.701904296875,56.0760498046875,29.7576904296875,52.4871826171875
-0.144775390625,0.256591796875,1.02587890625,-0.3204345703125,1.89971923828125,-0.03814697265625,56.0760498046875,29.7576904296875,52.4871826171875
-0.14453125,0.25537109375,1.028076171875,-0.11444091796875,1.60980224609375,-0.14495849609375,56.0760498046875,29.7576904296875,52.4871826171875
-0.140869140625,0.2529296875,1.02001953125,-0.16021728515625,1.91497802734375,-0.274658203125,56.82373046875,30.50537109375,50.543212890625
-0.14306640625,0.249267578125,1.0244140625,-0.37384033203125,2.22015380859375,-0.46539306640625,55.7769775390625,29.7576904296875,51.8890380859375
-0.12646484375,0.252685546875,1.02001953125,-0.8544921875,2.28118896484375,-0.42724609375,56.3751220703125,30.6549072265625,52.4871826171875
-0.138916015625,0.2509765625,1.021240234375,-0.86212158203125,2.09808349609375,-1.9378662109375,56.3751220703125,30.6549072265625,52.4871826171875
-0.141357421875,0.256591796875,1.0234375,-0.96893310546875,1.73187255859375,0.54931640625,56.3751220703125,30.6549072265625,52.4871826171875
-0.1435546875,0.25390625,1.02294921875,-1.068115234375,1.739501953125,0.40435791015625,56.3751220703125,30.6549072265625,52.4871826171875
-0.14501953125,0.253173828125,1.028076171875,-0.86212158203125,2.105712890625,0.20599365234375,55.4779052734375,30.0567626953125,50.9918212890625
-0.148681640625,0.23779296875,1.027099609375,-1.02996826171875,1.79290771484375,-0.0762939453125,54.730224609375,31.103515625,52.03857421875
-0.13818359375,0.250244140625,1.024658203125,-0.823974609375,1.4190673828125,-0.091552734375,56.6741943359375,30.3558349609375,52.4871826171875
-0.141845703125,0.254150390625,1.0283203125,-0.7476806640625,0.89263916015625,-0.18310546875,56.6741943359375,30.3558349609375,52.4871826171875
-0.144775390625,0.2548828125,1.02783203125,-0.701904296875,1.68609619140625,-0.6256103515625,56.6741943359375,30.3558349609375,52.4871826171875
-0.146728515625,0.254638671875,1.029296875,-0.83160400390625,2.17437744140625,-0.60272216796875,54.8797607421875,30.0567626953125,52.7862548828125
-0.138427734375,0.2509765625,1.031982421875,-0.89263916015625,2.61688232421875,-0.20599365234375,54.730224609375,29.30908203125,51.739501953125
-0.142822265625,0.2568359375,1.025146484375,-1.0833740234375,2.349853515625,-0.732421875,56.3751220703125,30.6549072265625,50.9918212890625
-0.14501953125,0.2529296875,1.02685546875,-0.66375732421875,2.47955322265625,-0.69427490234375,55.4779052734375,30.0567626953125,51.5899658203125
-0.143310546875,0.250732421875,1.02734375,-1.0833740234375,2.20489501953125,-0.1678466796875,55.4779052734375,30.0567626953125,51.5899658203125
-0.14599609375,0.252197265625,1.037109375,-0.8087158203125,2.3345947265625,1.89971923828125,55.4779052734375,30.0567626953125,51.5899658203125
-0.146484375,0.256591796875,1.0341796875,-0.84686279296875,2.08282470703125,-0.030517578125,56.2255859375,30.206298828125,51.739501953125
-0.1435546875,0.2548828125,1.016357421875,-0.4730224609375,2.105712890625,-1.93023681640625,56.524658203125,29.608154296875,51.4404296875
-0.147216796875,0.254638671875,1.0458984375,-0.46539306640625,2.23541259765625,1.94549560546875,55.7769775390625,30.9539794921875,51.5899658203125
-0.14501953125,0.25390625,1.021728515625,-0.43487548828125,2.288818359375,-0.20599365234375,55.926513671875,30.50537109375,51.4404296875
-0.1455078125,0.254638671875,1.025146484375,0.1678466796875,1.99127197265625,-0.69427490234375,55.926513671875,30.50537109375,51.4404296875
-0.146484375,0.24853515625,1.02978515625,0.06103515625,1.80816650390625,-0.54931640625,55.926513671875,30.50537109375,51.4404296875
-0.1494140625,0.247314453125,1.027587890625,-0.29754638671875,0.02288818359375,-0.08392333984375,56.0760498046875,30.9539794921875,51.2908935546875
-0.146728515625,0.24951171875,1.030517578125,-0.3509521484375,1.79290771484375,-0.05340576171875,55.926513671875,30.50537109375,51.141357421875
-0.141357421875,0.265380859375,1.029296875,-0.48828125,1.5869140625,0.19073486328125,56.82373046875,29.9072265625,51.141357421875
-0.143798828125,0.2490234375,1.0283203125,-0.54931640625,1.2969970703125,0.2899169921875,56.3751220703125,30.3558349609375,51.5899658203125
-0.14404296875,0.25439453125,1.026123046875,-0.25177001953125,0.80108642578125,-0.34332275390625,56.2255859375,29.608154296875,50.84228515625
-0.14013671875,0.255615234375,1.02880859375,-0.8087158203125,1.36566162109375,0.2593994140625,56.2255859375,29.608154296875,50.84228515625
-0.145263671875,0.255615234375,1.037353515625,-0.58746337890625,2.2735595703125,0.1983642578125,56.2255859375,29.608154296875,50.84228515625
-0.125732421875,0.25732421875,1.02587890625,-0.32806396484375,3.53240966796875,-0.9307861328125,54.8797607421875,31.2530517578125,51.2908935546875
-0.136474609375,0.255859375,1.020751953125,-0.23651123046875,3.51715087890625,-1.04522705078125,54.730224609375,29.9072265625,51.141357421875
-0.132568359375,0.257080078125,1.031005859375,-0.18310546875,3.15093994140625,-1.0986328125,55.4779052734375,30.3558349609375,51.5899658203125
-0.133544921875,0.25244140625,1.013916015625,-0.29754638671875,1.9989013671875,-0.9918212890625,55.4779052734375,30.3558349609375,51.5899658203125
-0.138916015625,0.244873046875,1.01416015625,-0.701904296875,1.18255615234375,-0.213623046875,55.4779052734375,30.3558349609375,51.5899658203125
-0.1435546875,0.244140625,1.017578125,-1.708984375,1.28173828125,0.28228759765625,55.4779052734375,30.3558349609375,51.5899658203125
-0.145263671875,0.24462890625,1.02392578125,-2.15911865234375,1.800537109375,0.22125244140625,56.2255859375,29.608154296875,52.63671875
-0.144775390625,0.2490234375,1.027099609375,-2.105712890625,1.59454345703125,0.1068115234375,55.7769775390625,29.7576904296875,52.1881103515625
-0.14990234375,0.264892578125,1.015625,-1.96075439453125,1.76239013671875,-0.46539306640625,55.926513671875,28.411865234375,51.739501953125
-0.1533203125,0.245849609375,1.028076171875,-1.88446044921875,1.89971923828125,0.0152587890625,55.926513671875,28.411865234375,51.739501953125
-0.153564453125,0.245849609375,1.037353515625,-2.00653076171875,2.28118896484375,0.61798095703125,55.926513671875,28.411865234375,51.739501953125
-0.1591796875,0.2470703125,1.04443359375,-2.0294189453125,2.41851806640625,0.72479248046875,56.2255859375,29.9072265625,50.244140625
-0.15673828125,0.253173828125,1.032470703125,-1.41143798828125,2.58636474609375,0.30517578125,56.0760498046875,28.8604736328125,50.3936767578125
-0.154541015625,0.258544921875,1.039794921875,-0.60272216796875,3.89862060546875,0.0,55.7769775390625,30.3558349609375,49.7955322265625
-0.15478515625,0.2578125,1.035400390625,0.12969970703125,3.86810302734375,0.22125244140625,55.7769775390625,30.3558349609375,51.2908935546875
-0.15087890625,0.256103515625,1.017333984375,0.43487548828125,2.22015380859375,-0.35858154296875,55.328369140625,29.9072265625,52.03857421875
-0.15380859375,0.250244140625,1.017333984375,-0.80108642578125,2.40325927734375,0.80108642578125,56.524658203125,30.206298828125,51.4404296875
-0.13671875,0.23583984375,1.030029296875,-0.213623046875,0.38909912109375,0.1220703125,57.122802734375,29.608154296875,51.4404296875
-0.136962890625,0.24560546875,1.044677734375,-0.2288818359375,0.61798095703125,0.640869140625,55.328369140625,30.206298828125,51.141357421875
-0.143798828125,0.244384765625,1.022705078125,-0.4425048828125,0.16021728515625,-0.35858154296875,56.9732666015625,29.7576904296875,50.9918212890625
-0.1357421875,0.24658203125,1.02001953125,-0.8392333984375,2.57110595703125,-0.274658203125,55.926513671875,29.9072265625,51.739501953125
-0.13525390625,0.2470703125,1.02099609375,-0.87738037109375,3.89862060546875,-0.152587890625,55.926513671875,29.9072265625,51.739501953125
-0.142333984375,0.24755859375,1.030029296875,-0.57220458984375,1.2664794921875,-0.0762939453125,55.926513671875,29.9072265625,51.739501953125
-0.14501953125,0.24853515625,1.035888671875,-1.10626220703125,1.220703125,-0.244140625,56.524658203125,31.70166015625,51.4404296875
-0.14404296875,0.2509765625,1.03955078125,-1.2054443359375,1.07574462890625,0.34332275390625,55.62744140625,30.50537109375,52.03857421875
-0.143310546875,0.251708984375,1.0341796875,-1.27410888671875,1.28936767578125,0.18310546875,55.7769775390625,31.2530517578125,52.4871826171875
-0.141845703125,0.25537109375,1.034423828125,-0.75531005859375,0.74005126953125,0.3509521484375,55.7769775390625,31.2530517578125,52.4871826171875
-0.14599609375,0.252685546875,1.025634765625,-0.66375732421875,0.84686279296875,0.3814697265625,55.7769775390625,31.2530517578125,52.4871826171875
-0.14892578125,0.2490234375,1.030517578125,-0.6103515625,1.0528564453125,1.9378662109375,55.7769775390625,31.2530517578125,52.4871826171875
-0.14892578125,0.251220703125,1.025390625,-0.32806396484375,1.6326904296875,-0.152587890625,56.2255859375,29.010009765625,49.64599609375
-0.151611328125,0.251708984375,1.0166015625,-0.5950927734375,1.62506103515625,-0.1983642578125,55.62744140625,31.103515625,50.84228515625
-0.14990234375,0.254638671875,1.019287109375,-0.7171630859375,1.22833251953125,-0.20599365234375,55.62744140625,29.9072265625,52.03857421875
-0.150390625,0.253662109375,1.01513671875,-0.8392333984375,0.93841552734375,-0.091552734375,55.62744140625,29.9072265625,52.03857421875
-0.150146484375,0.254638671875,1.025634765625,-1.24359130859375,0.57220458984375,0.244140625,55.62744140625,29.9072265625,52.03857421875
-0.143310546875,0.251708984375,1.029541015625,-1.5869140625,0.335693359375,0.396728515625,55.328369140625,28.7109375,51.141357421875
-0.145751953125,0.246826171875,1.02392578125,-1.495361328125,0.77056884765625,0.90789794921875,55.4779052734375,29.4586181640625,51.5899658203125
-0.147705078125,0.251220703125,1.024658203125,-1.35040283203125,1.04522705078125,0.58746337890625,55.7769775390625,30.9539794921875,51.5899658203125
-0.146240234375,0.241455078125,1.029541015625,-1.617431640625,1.70135498046875,0.42724609375,56.0760498046875,30.6549072265625,50.9918212890625
-0.15283203125,0.2451171875,1.034423828125,-1.556396484375,1.30462646484375,0.78582763671875,56.0760498046875,30.6549072265625,50.9918212890625
-0.136962890625,0.24609375,1.030029296875,-1.28173828125,0.45013427734375,0.7781982421875,56.0760498046875,30.6549072265625,50.9918212890625
-0.155029296875,0.245849609375,1.035888671875,-1.31988525390625,0.1068115234375,0.61798095703125,56.524658203125,30.50537109375,52.03857421875
-0.146484375,0.247802734375,1.03173828125,-1.09100341796875,0.3204345703125,1.25885009765625,55.7769775390625,30.6549072265625,51.2908935546875
-0.130126953125,0.269287109375,1.036376953125,-0.25177001953125,0.8087158203125,3.1280517578125,54.730224609375,29.9072265625,50.84228515625
-0.182373046875,0.221435546875,1.03759765625,-1.9683837890625,3.71551513671875,-4.608154296875,55.7769775390625,30.9539794921875,51.2908935546875
-0.095947265625,0.27783203125,1.052734375,-1.06048583984375,-0.40435791015625,4.09698486328125,55.7769775390625,30.9539794921875,51.2908935546875
-0.144287109375,0.248779296875,1.03271484375,0.52642822265625,1.2359619140625,0.52642822265625,55.7769775390625,30.9539794921875,51.2908935546875
-0.153076171875,0.243408203125,1.04248046875,0.030517578125,3.36456298828125,-1.46484375,55.7769775390625,30.9539794921875,51.2908935546875
-0.12060546875,0.263427734375,1.03564453125,-0.08392333984375,2.3193359375,0.74005126953125,55.7769775390625,30.9539794921875,51.2908935546875
-0.14404296875,0.25537109375,1.02587890625,0.55694580078125,2.2125244140625,0.1220703125,55.029296875,29.30908203125,51.4404296875
-0.145751953125,0.247314453125,1.015869140625,0.80108642578125,1.617431640625,-1.06048583984375,56.3751220703125,30.0567626953125,50.6927490234375
-0.130615234375,0.247314453125,1.02783203125,0.29754638671875,1.41143798828125,0.1983642578125,54.730224609375,29.30908203125,51.4404296875
-0.14013671875,0.243408203125,1.024169921875,0.11444091796875,1.8768310546875,0.2288818359375,54.730224609375,29.30908203125,51.4404296875
-0.1435546875,0.245849609375,1.031005859375,0.1983642578125,2.29644775390625,0.152587890625,54.730224609375,29.30908203125,51.4404296875
-0.14599609375,0.247314453125,1.021484375,-0.00762939453125,2.17437744140625,0.22125244140625,54.730224609375,29.30908203125,51.4404296875
-0.138671875,0.24609375,1.017822265625,-0.54931640625,1.922607421875,0.77056884765625,54.730224609375,29.30908203125,51.4404296875
-0.14892578125,0.243896484375,1.020751953125,-0.75531005859375,2.0904541015625,0.29754638671875,56.2255859375,29.010009765625,49.945068359375
-0.14697265625,0.248779296875,1.025390625,-0.58746337890625,1.7852783203125,0.09918212890625,55.7769775390625,29.1595458984375,52.7862548828125
-0.146240234375,0.244873046875,1.0439453125,-0.5645751953125,2.06756591796875,1.13677978515625,56.3751220703125,30.6549072265625,51.8890380859375
-0.141845703125,0.246337890625,1.0361328125,-0.61798095703125,2.18963623046875,1.15203857421875,55.7769775390625,29.7576904296875,51.2908935546875
-0.13818359375,0.234619140625,1.033203125,-0.31280517578125,2.2735595703125,0.6561279296875,55.7769775390625,29.7576904296875,51.2908935546875
-0.141357421875,0.249267578125,1.027587890625,0.16021728515625,2.05230712890625,-0.08392333984375,55.7769775390625,29.7576904296875,51.2908935546875
-0.13916015625,0.251708984375,1.022216796875,0.30517578125,1.53350830078125,-0.05340576171875,55.62744140625,30.804443359375,51.739501953125
-0.144287109375,0.248291015625,1.0302734375,-0.08392333984375,1.03759765625,0.31280517578125,55.029296875,29.608154296875,51.141357421875
-0.146484375,0.2451171875,1.040283203125,-0.5645751953125,1.5106201171875,0.8697509765625,57.2723388671875,30.3558349609375,50.9918212890625
-0.1474609375,0.247802734375,1.036865234375,-0.55694580078125,2.49481201171875,0.732421875,57.2723388671875,30.3558349609375,50.9918212890625
-0.14794921875,0.2529296875,1.040771484375,-0.091552734375,3.07464599609375,0.74005126953125,57.2723388671875,30.3558349609375,50.9918212890625
-0.14404296875,0.251953125,1.034423828125,0.30517578125,2.8839111328125,0.5340576171875,57.2723388671875,30.3558349609375,50.9918212890625
-0.140380859375,0.2529296875,1.046142578125,1.02996826171875,2.44140625,0.26702880859375,55.4779052734375,29.1595458984375,51.2908935546875
-0.137939453125,0.25048828125,1.021484375,0.83160400390625,0.0457763671875,-0.17547607421875,56.3751220703125,29.1595458984375,51.5899658203125
-0.139892578125,0.24609375,1.016845703125,0.30517578125,1.41143798828125,-0.12969970703125,55.926513671875,29.9072265625,52.337646484375
-0.138427734375,0.2490234375,1.01806640625,0.0,1.15966796875,0.091552734375,55.926513671875,29.9072265625,52.337646484375
-0.144287109375,0.248291015625,1.02587890625,-0.45013427734375,1.4190673828125,0.66375732421875,55.926513671875,29.9072265625,52.337646484375
-0.144775390625,0.250732421875,1.0205078125,-0.6256103515625,0.8392333984375,0.43487548828125,54.8797607421875,29.1595458984375,51.2908935546875
-0.147705078125,0.248779296875,1.0263671875,-0.762939453125,1.617431640625,0.32806396484375,55.029296875,30.50537109375,51.4404296875
-0.142578125,0.245361328125,1.0234375,-0.78582763671875,2.09808349609375,0.78582763671875,55.926513671875,29.9072265625,52.63671875
-0.14453125,0.2470703125,1.0283203125,-1.04522705078125,2.44140625,0.6866455078125,55.926513671875,29.9072265625,52.63671875
-0.1376953125,0.254638671875,1.036376953125,-0.8392333984375,1.7852783203125,0.640869140625,55.926513671875,29.9072265625,52.63671875
-0.134765625,0.2490234375,1.027587890625,-0.6103515625,1.5411376953125,0.8087158203125,55.926513671875,29.9072265625,52.63671875
-0.1357421875,0.235595703125,1.02978515625,-0.63323974609375,1.18255615234375,0.4425048828125,54.5806884765625,31.2530517578125,52.4871826171875
-0.143310546875,0.251953125,1.028076171875,0.0,0.64849853515625,0.98419189453125,56.3751220703125,30.6549072265625,52.4871826171875
-0.137939453125,0.25048828125,1.0234375,-0.34332275390625,0.22125244140625,1.42669677734375,55.926513671875,29.30908203125,51.141357421875
-0.14501953125,0.239501953125,1.025146484375,-0.28228759765625,2.471923828125,-0.63323974609375,55.926513671875,29.30908203125,51.141357421875
-0.13525390625,0.251953125,1.03271484375,-0.274658203125,2.899169921875,-0.58746337890625,55.926513671875,29.30908203125,51.141357421875
-0.125,0.248291015625,1.032470703125,-0.5645751953125,1.983642578125,0.42724609375,56.9732666015625,30.0567626953125,50.9918212890625
-0.130859375,0.24560546875,1.030517578125,-1.07574462890625,0.9918212890625,0.63323974609375,55.029296875,30.50537109375,51.141357421875
-0.135986328125,0.252197265625,1.02587890625,-0.29754638671875,0.6103515625,0.3204345703125,56.3751220703125,30.6549072265625,50.6927490234375
-0.1396484375,0.246337890625,1.033447265625,-0.41961669921875,1.09100341796875,0.55694580078125,55.62744140625,29.30908203125,51.141357421875
-0.14208984375,0.245849609375,1.03515625,-0.83160400390625,1.7547607421875,0.640869140625,55.62744140625,29.30908203125,51.141357421875
-0.1259765625,0.24853515625,1.031982421875,-0.46539306640625,2.22015380859375,0.213623046875,55.62744140625,29.30908203125,51.141357421875
-0.138427734375,0.236572265625,1.032958984375,-0.02288818359375,1.99127197265625,-0.29754638671875,55.4779052734375,30.0567626953125,51.5899658203125
-0.13916015625,0.24853515625,1.045654296875,0.12969970703125,1.9378662109375,-0.22125244140625,54.8797607421875,30.0567626953125,51.8890380859375
-0.13720703125,0.24853515625,1.028076171875,-0.16021728515625,2.0294189453125,-0.26702880859375,55.7769775390625,30.3558349609375,51.2908935546875
-0.1376953125,0.249755859375,1.033447265625,-0.213623046875,2.1820068359375,-0.67901611328125,55.7769775390625,30.3558349609375,51.2908935546875
-0.153564453125,0.25048828125,1.021484375,-0.46539306640625,1.76239013671875,-0.70953369140625,55.7769775390625,30.3558349609375,51.2908935546875
-0.140869140625,0.25,1.023681640625,-0.4119873046875,1.56402587890625,-0.6561279296875,55.7769775390625,30.3558349609375,51.2908935546875
-0.13134765625,0.246826171875,1.0244140625,-0.60272216796875,0.823974609375,-0.3509521484375,56.0760498046875,30.6549072265625,52.4871826171875
-0.13623046875,0.247802734375,1.025634765625,-0.45013427734375,0.0762939453125,-0.244140625,55.1788330078125,29.7576904296875,50.0946044921875
-0.13720703125,0.25,1.023681640625,-0.732421875,-1.80816650390625,-0.1373291015625,55.7769775390625,29.4586181640625,51.5899658203125
-0.1259765625,0.244384765625,1.031005859375,-0.9002685546875,0.67901611328125,0.1678466796875,55.7769775390625,29.4586181640625,51.5899658203125
-0.140380859375,0.243896484375,1.03955078125,-0.89263916015625,1.09100341796875,0.54931640625,55.7769775390625,29.4586181640625,51.5899658203125
-0.143798828125,0.25341796875,1.0390625,-0.66375732421875,1.27410888671875,0.0152587890625,56.0760498046875,29.7576904296875,50.3936767578125
-0.142333984375,0.248291015625,1.033935546875,-0.48065185546875,1.495361328125,-0.1373291015625,56.3751220703125,31.2530517578125,51.5899658203125
-0.1552734375,0.245849609375,1.0302734375,-0.4119873046875,3.8909912109375,1.91497802734375,56.3751220703125,30.0567626953125,52.1881103515625
-0.139404296875,0.2529296875,1.027099609375,-0.17547607421875,2.12860107421875,-0.35858154296875,55.029296875,30.804443359375,52.03857421875
-0.13525390625,0.25146484375,1.027099609375,-0.26702880859375,2.655029296875,-0.885009765625,56.2255859375,29.9072265625,51.4404296875
-0.138427734375,0.258056640625,1.02294921875,-1.89971923828125,3.25775146484375,-0.8697509765625,56.9732666015625,30.3558349609375,51.8890380859375
-0.134521484375,0.235107421875,1.012939453125,1.77764892578125,3.23486328125,-0.8544921875,56.2255859375,29.9072265625,51.4404296875
-0.127685546875,0.247802734375,1.01318359375,-0.54168701171875,2.1514892578125,-0.67138671875,56.3751220703125,30.0567626953125,51.8890380859375
-0.135009765625,0.2421875,1.02587890625,-1.7547607421875,0.87738037109375,-1.83868408203125,56.2255859375,29.9072265625,51.4404296875
-0.144287109375,0.2451171875,1.032958984375,-1.6632080078125,0.579833984375,0.34332275390625,56.3751220703125,30.0567626953125,51.5899658203125
-0.144775390625,0.243408203125,1.042724609375,-1.65557861328125,1.800537109375,1.129150390625,55.029296875,30.206298828125,50.84228515625
-0.14990234375,0.263427734375,1.047119140625,-0.9307861328125,2.60162353515625,0.66375732421875,56.0760498046875,30.0567626953125,51.2908935546875
-0.1533203125,0.255859375,1.0390625,0.091552734375,3.96728515625,-0.9002685546875,56.0760498046875,30.0567626953125,51.2908935546875
-0.14501953125,0.26513671875,1.035888671875,0.1983642578125,3.07464599609375,-0.8087158203125,55.7769775390625,30.9539794921875,51.8890380859375
-0.14404296875,0.255615234375,1.02001953125,0.7476806640625,1.6021728515625,-0.9918212890625,57.421875,29.010009765625,50.84228515625
-0.14013671875,0.262451171875,1.0458984375,-0.5950927734375,0.61798095703125,0.49591064453125,56.0760498046875,29.7576904296875,51.5899658203125
-0.142578125,0.24951171875,1.026611328125,-0.48065185546875,0.29754638671875,0.67901611328125,55.328369140625,31.103515625,50.84228515625
-0.146728515625,0.248046875,1.042236328125,-0.30517578125,0.74005126953125,0.22125244140625,55.926513671875,29.608154296875,51.4404296875
-0.125244140625,0.246826171875,1.028076171875,-0.32806396484375,1.4495849609375,0.03814697265625,55.029296875,29.608154296875,51.4404296875
-0.136474609375,0.24755859375,1.03515625,-0.0762939453125,2.37274169921875,-1.861572265625,57.122802734375,30.206298828125,50.543212890625
-0.131591796875,0.2470703125,1.0283203125,1.9378662109375,2.90679931640625,-0.08392333984375,55.926513671875,29.30908203125,50.84228515625
-0.13037109375,0.24462890625,1.02685546875,0.03814697265625,2.9449462890625,-0.1220703125,56.0760498046875,29.1595458984375,51.8890380859375
-0.1337890625,0.24853515625,1.023193359375,0.06103515625,3.11279296875,-0.77056884765625,56.0760498046875,29.1595458984375,51.8890380859375
-0.136474609375,0.2490234375,1.0166015625,0.58746337890625,2.86865234375,-1.373291015625,56.0760498046875,29.1595458984375,51.8890380859375
-0.133544921875,0.2431640625,1.02197265625,-0.22125244140625,1.83868408203125,-0.7781982421875,56.0760498046875,29.1595458984375,51.8890380859375
-0.140625,0.239013671875,1.026123046875,-0.762939453125,1.16729736328125,-1.861572265625,56.0760498046875,29.7576904296875,52.7862548828125
-0.155029296875,0.247314453125,1.027099609375,-1.03759765625,0.96893310546875,0.518798828125,55.328369140625,30.50537109375,51.141357421875
-0.14208984375,0.23486328125,1.02978515625,-1.02996826171875,1.50299072265625,0.2288818359375,54.5806884765625,30.3558349609375,50.6927490234375
-0.140625,0.24658203125,1.04296875,-1.220703125,1.5716552734375,-0.26702880859375,54.5806884765625,30.3558349609375,50.6927490234375
-0.142822265625,0.247802734375,1.033447265625,-1.21307373046875,1.53350830078125,0.09918212890625,54.5806884765625,30.3558349609375,50.6927490234375
-0.145263671875,0.2509765625,1.028564453125,-1.39617919921875,1.51824951171875,0.1983642578125,55.7769775390625,29.1595458984375,50.6927490234375
-0.150146484375,0.254150390625,1.033935546875,-0.9002685546875,1.4190673828125,0.0152587890625,55.328369140625,29.9072265625,51.739501953125
-0.152587890625,0.249267578125,1.033935546875,-0.9613037109375,1.54876708984375,0.29754638671875,56.6741943359375,29.4586181640625,52.4871826171875
-0.14794921875,0.2529296875,1.038330078125,-1.06048583984375,1.4801025390625,0.762939453125,56.3751220703125,30.3558349609375,50.6927490234375
-0.15234375,0.247314453125,1.043701171875,-0.67138671875,1.6937255859375,0.48065185546875,56.3751220703125,30.3558349609375,50.6927490234375
-0.148681640625,0.23486328125,1.0419921875,-0.54931640625,2.0599365234375,0.40435791015625,56.3751220703125,30.3558349609375,50.6927490234375
-0.147705078125,0.251953125,1.042236328125,-0.26702880859375,2.4871826171875,0.5950927734375,55.926513671875,29.608154296875,51.4404296875
-0.1416015625,0.2509765625,1.037353515625,1.9073486328125,2.4566650390625,0.49591064453125,56.524658203125,30.206298828125,51.4404296875
-0.13720703125,0.248291015625,1.026123046875,0.57220458984375,2.15911865234375,-0.1220703125,56.0760498046875,30.0567626953125,51.2908935546875
-0.13037109375,0.248046875,1.023681640625,0.87738037109375,1.74713134765625,-0.640869140625,56.0760498046875,30.0567626953125,51.2908935546875
-0.132568359375,0.248291015625,1.025390625,0.640869140625,1.190185546875,-0.4119873046875,56.0760498046875,30.0567626953125,51.2908935546875
-0.131591796875,0.243896484375,1.0283203125,0.091552734375,1.10626220703125,-0.30517578125,56.0760498046875,30.0567626953125,51.2908935546875
-0.135986328125,0.243408203125,1.0341796875,-0.4730224609375,1.01470947265625,-0.08392333984375,56.0760498046875,30.0567626953125,51.2908935546875
-0.1396484375,0.2451171875,1.037109375,-0.77056884765625,0.78582763671875,0.1983642578125,56.0760498046875,30.0567626953125,50.9918212890625
-0.154296875,0.24853515625,1.041259765625,-0.8392333984375,0.74005126953125,0.38909912109375,55.926513671875,30.50537109375,52.03857421875
-0.141357421875,0.25,1.040283203125,-0.7476806640625,1.33514404296875,0.38909912109375,54.5806884765625,29.7576904296875,50.6927490234375
-0.144775390625,0.264404296875,1.0390625,-0.72479248046875,2.0294189453125,0.152587890625,56.3751220703125,28.8604736328125,51.8890380859375
-0.14599609375,0.24951171875,1.034423828125,0.09918212890625,2.4566650390625,-0.29754638671875,56.3751220703125,30.0567626953125,51.8890380859375
-0.14111328125,0.25244140625,1.0361328125,0.63323974609375,2.79998779296875,-0.45013427734375,56.3751220703125,30.0567626953125,51.8890380859375
-0.1357421875,0.2529296875,1.026123046875,0.80108642578125,2.9144287109375,-0.823974609375,56.3751220703125,30.0567626953125,51.8890380859375
-0.133544921875,0.2646484375,1.02490234375,0.72479248046875,2.8228759765625,-1.16729736328125,56.3751220703125,30.0567626953125,51.8890380859375
-0.13232421875,0.251220703125,1.01416015625,0.54931640625,2.12860107421875,-1.28936767578125,56.524658203125,28.7109375,51.141357421875
-0.135986328125,0.244384765625,1.017333984375,0.30517578125,1.5716552734375,-1.129150390625,56.82373046875,29.9072265625,51.141357421875
-0.140869140625,0.24658203125,1.01904296875,-0.457763671875,1.38092041015625,-0.80108642578125,55.62744140625,30.804443359375,50.543212890625
-0.1396484375,0.2470703125,1.0263671875,-0.78582763671875,1.15203857421875,-0.18310546875,55.62744140625,30.804443359375,50.543212890625
-0.142578125,0.24365234375,1.029541015625,-0.9002685546875,1.15966796875,0.0762939453125,55.62744140625,30.804443359375,50.543212890625
-0.1416015625,0.24853515625,1.023681640625,-0.9918212890625,1.13677978515625,-0.06866455078125,55.62744140625,30.804443359375,50.543212890625
-0.138916015625,0.263671875,1.030517578125,-0.87738037109375,1.93023681640625,0.06866455078125,55.62744140625,30.804443359375,50.543212890625
-0.146484375,0.2548828125,1.03515625,-0.20599365234375,2.471923828125,-0.95367431640625,55.62744140625,30.804443359375,50.543212890625
-0.150390625,0.25,1.0439453125,-0.14495849609375,3.0670166015625,-0.823974609375,55.62744140625,30.804443359375,50.543212890625
-0.147705078125,0.237060546875,1.026611328125,-0.14495849609375,2.838134765625,-1.007080078125,55.62744140625,30.804443359375,50.543212890625
-0.149169921875,0.252197265625,1.01904296875,-0.274658203125,2.86102294921875,-0.67138671875,55.1788330078125,30.3558349609375,51.5899658203125
-0.15087890625,0.2470703125,1.020263671875,-0.28228759765625,3.143310546875,-0.02288818359375,55.1788330078125,29.7576904296875,50.6927490234375
-0.151123046875,0.25244140625,1.017578125,-0.4425048828125,2.838134765625,0.17547607421875,55.4779052734375,30.3558349609375,50.6927490234375
-0.152099609375,0.250244140625,1.021484375,-0.5340576171875,2.8533935546875,0.14495849609375,55.926513671875,30.206298828125,50.84228515625
-0.14697265625,0.265380859375,1.021240234375,-0.90789794921875,3.0670166015625,0.41961669921875,55.926513671875,30.206298828125,50.84228515625
-0.143798828125,0.249267578125,1.021728515625,-0.8087158203125,2.5177001953125,0.43487548828125,55.926513671875,30.206298828125,50.84228515625
-0.148193359375,0.234619140625,1.020263671875,-1.434326171875,2.20489501953125,0.2593994140625,54.8797607421875,29.7576904296875,51.2908935546875
-0.143310546875,0.245361328125,1.0244140625,-1.800537109375,1.64031982421875,0.701904296875,55.62744140625,30.206298828125,50.543212890625
-0.14794921875,0.248046875,1.01806640625,-2.3651123046875,1.59454345703125,1.65557861328125,56.3751220703125,29.1595458984375,51.5899658203125
-0.1513671875,0.245361328125,1.030029296875,-2.349853515625,1.56402587890625,1.5411376953125,55.62744140625,30.50537109375,50.84228515625
-0.1494140625,0.247314453125,1.03564453125,-2.5787353515625,2.0751953125,1.28173828125,56.0760498046875,30.3558349609375,51.5899658203125
-0.1474609375,0.247802734375,1.040771484375,-1.861572265625,2.5177001953125,1.24359130859375,55.1788330078125,29.4586181640625,50.9918212890625
-0.1416015625,0.244384765625,1.038818359375,-1.41143798828125,2.72369384765625,0.79345703125,55.4779052734375,30.3558349609375,50.3936767578125
-0.13818359375,0.24560546875,1.03662109375,-0.99945068359375,2.89154052734375,0.3662109375,55.328369140625,29.608154296875,51.141357421875
-0.135009765625,0.25048828125,1.033935546875,-0.49591064453125,2.4871826171875,0.3814697265625,55.328369140625,29.608154296875,51.141357421875
-0.1328125,0.242919921875,1.0380859375,-0.640869140625,2.7008056640625,0.43487548828125,55.328369140625,29.608154296875,51.141357421875
-0.130615234375,0.251953125,1.03662109375,-0.63323974609375,2.54058837890625,0.45013427734375,55.4779052734375,30.9539794921875,51.5899658203125
-0.127197265625,0.245361328125,1.038330078125,-0.54931640625,2.54058837890625,0.4425048828125,55.4779052734375,30.9539794921875,51.5899658203125
-0.127685546875,0.242919921875,1.03125,-0.396728515625,2.2125244140625,1.89971923828125,55.4779052734375,30.9539794921875,51.5899658203125
-0.130126953125,0.239013671875,1.0322265625,-0.274658203125,1.251220703125,-0.02288818359375,55.7769775390625,30.0567626953125,50.6927490234375
-0.1357421875,0.243408203125,1.038330078125,-0.5645751953125,1.2969970703125,-0.06866455078125,55.7769775390625,30.0567626953125,50.6927490234375
-0.13818359375,0.24560546875,1.03369140625,-0.49591064453125,1.678466796875,-0.02288818359375,55.62744140625,30.50537109375,50.244140625
-0.143310546875,0.247314453125,1.03564453125,-0.42724609375,2.31170654296875,-0.23651123046875,56.6741943359375,28.8604736328125,51.8890380859375
-0.134521484375,0.237060546875,1.03271484375,0.17547607421875,2.1514892578125,-0.58746337890625,56.82373046875,30.206298828125,51.4404296875
-0.14501953125,0.246337890625,1.03369140625,0.1678466796875,2.29644775390625,-0.4119873046875,56.82373046875,30.206298828125,51.4404296875
-0.146728515625,0.24560546875,1.031005859375,0.34332275390625,2.349853515625,-0.48828125,56.82373046875,30.206298828125,51.4404296875
-0.148681640625,0.234375,1.0263671875,0.1220703125,2.7618408203125,1.94549560546875,55.62744140625,28.411865234375,51.141357421875
-0.151123046875,0.2490234375,1.026611328125,-0.091552734375,3.11279296875,-0.06866455078125,54.8797607421875,30.3558349609375,51.2908935546875
-0.1484375,0.254150390625,1.021728515625,-0.213623046875,2.8228759765625,-0.4425048828125,56.524658203125,29.608154296875,52.03857421875
-0.146728515625,0.25341796875,1.0224609375,0.091552734375,1.708984375,-0.3204345703125,55.7769775390625,28.8604736328125,51.5899658203125
-0.144287109375,0.248291015625,1.02197265625,0.03814697265625,0.95367431640625,0.08392333984375,56.0760498046875,29.7576904296875,51.5899658203125
-0.15087890625,0.249267578125,1.02783203125,-0.38909912109375,1.1444091796875,0.16021728515625,56.2255859375,30.206298828125,50.244140625
-0.148681640625,0.241455078125,1.029052734375,-0.732421875,1.36566162109375,0.32806396484375,56.2255859375,30.206298828125,50.244140625
-0.142822265625,0.24755859375,1.028076171875,-1.1444091796875,1.4190673828125,0.5950927734375,56.2255859375,30.206298828125,50.244140625
-0.1435546875,0.2431640625,1.02099609375,-1.1444091796875,1.30462646484375,0.6256103515625,56.2255859375,30.206298828125,50.244140625
-0.14404296875,0.244873046875,1.02978515625,-1.07574462890625,1.068115234375,0.64849853515625,56.0760498046875,30.0567626953125,50.9918212890625
-0.147216796875,0.2412109375,1.03759765625,-0.8087158203125,1.373291015625,0.54931640625,55.926513671875,30.206298828125,51.4404296875
-0.13671875,0.24462890625,1.041259765625,-0.7781982421875,2.4566650390625,0.18310546875,55.926513671875,30.206298828125,51.4404296875
-0.12548828125,0.254638671875,1.0234375,-0.2899169921875,2.0599365234375,-0.335693359375,55.029296875,28.7109375,51.141357421875
-0.1279296875,0.264892578125,1.0185546875,0.1220703125,2.29644775390625,-0.4730224609375,55.029296875,28.7109375,51.141357421875
-0.13037109375,0.2470703125,1.023681640625,-0.0762939453125,2.90679931640625,-0.40435791015625,55.62744140625,29.30908203125,51.141357421875
-0.135009765625,0.24462890625,1.017333984375,-0.35858154296875,2.67791748046875,-0.946044921875,55.7769775390625,30.6549072265625,49.7955322265625
-0.154296875,0.242919921875,1.0224609375,-1.42669677734375,1.70135498046875,-0.2899169921875,55.7769775390625,30.6549072265625,49.7955322265625
-0.13916015625,0.24169921875,1.044189453125,-1.62506103515625,1.94549560546875,0.11444091796875,55.7769775390625,30.6549072265625,49.7955322265625
-0.145751953125,0.23779296875,1.0361328125,-1.86920166015625,2.52532958984375,0.2288818359375,56.0760498046875,29.4586181640625,50.6927490234375
-0.142333984375,0.240966796875,1.035400390625,-1.73187255859375,2.50244140625,0.05340576171875,56.524658203125,30.206298828125,51.141357421875
-0.150390625,0.24853515625,1.036865234375,-1.312255859375,0.03814697265625,-0.152587890625,55.1788330078125,29.4586181640625,51.8890380859375
-0.15576171875,0.250244140625,1.031982421875,-1.1138916015625,2.37274169921875,-0.12969970703125,55.1788330078125,29.4586181640625,51.8890380859375
-0.17041015625,0.2490234375,1.0400390625,-1.0528564453125,2.716064453125,-1.953125,55.1788330078125,29.4586181640625,51.8890380859375
-0.158203125,0.25341796875,1.04736328125,-0.58746337890625,2.41851806640625,-0.23651123046875,55.4779052734375,29.4586181640625,50.6927490234375
-0.1513671875,0.2490234375,1.0380859375,-0.1220703125,2.22015380859375,-0.19073486328125,56.9732666015625,30.0567626953125,52.1881103515625
-0.14794921875,0.246337890625,1.036376953125,-0.3204345703125,2.34222412109375,-1.89208984375,55.926513671875,29.9072265625,50.84228515625
-0.150634765625,0.247802734375,1.03515625,-0.1373291015625,2.20489501953125,0.48828125,56.2255859375,30.206298828125,50.543212890625
-0.14501953125,0.2529296875,1.03759765625,-0.0762939453125,1.953125,0.25177001953125,56.2255859375,30.206298828125,50.543212890625
-0.1435546875,0.246826171875,1.038330078125,1.91497802734375,1.51824951171875,0.41961669921875,56.2255859375,30.206298828125,50.543212890625
-0.141845703125,0.247314453125,1.039794921875,-0.0457763671875,1.2054443359375,0.70953369140625,56.2255859375,30.206298828125,50.543212890625
-0.14013671875,0.2490234375,1.035400390625,0.1220703125,1.30462646484375,0.77056884765625,56.82373046875,28.7109375,51.739501953125
-0.137451171875,0.24267578125,1.02685546875,0.457763671875,1.24359130859375,0.29754638671875,54.8797607421875,29.1595458984375,51.8890380859375
-0.134765625,0.245361328125,1.031982421875,0.54168701171875,1.3885498046875,-1.9378662109375,56.524658203125,29.30908203125,50.84228515625
-0.130859375,0.244140625,1.02880859375,0.61798095703125,2.08282470703125,-0.79345703125,55.7769775390625,30.3558349609375,51.2908935546875
-0.128173828125,0.240234375,1.01611328125,0.2593994140625,2.166748046875,-1.21307373046875,55.7769775390625,30.3558349609375,51.2908935546875
-0.12939453125,0.238525390625,1.02490234375,-0.030517578125,0.89263916015625,-0.67901611328125,55.7769775390625,30.3558349609375,51.2908935546875
-0.130615234375,0.240234375,1.028564453125,-0.46539306640625,-0.09918212890625,-0.52642822265625,56.82373046875,29.010009765625,51.739501953125
-0.142822265625,0.237548828125,1.0302734375,-0.60272216796875,0.0152587890625,0.03814697265625,55.926513671875,29.30908203125,50.543212890625
-0.14599609375,0.24462890625,1.02978515625,-0.92315673828125,0.80108642578125,0.3204345703125,56.2255859375,29.9072265625,50.543212890625
-0.14697265625,0.24462890625,1.028564453125,-1.10626220703125,1.70135498046875,-0.2593994140625,56.2255859375,29.9072265625,50.543212890625
-0.140625,0.24853515625,1.026123046875,-0.86212158203125,1.5869140625,0.0152587890625,56.2255859375,29.9072265625,50.543212890625
-0.142333984375,0.248046875,1.026611328125,-0.31280517578125,0.80108642578125,-0.26702880859375,56.2255859375,29.9072265625,50.543212890625
-0.1455078125,0.249267578125,1.030517578125,-0.17547607421875,0.7781982421875,-0.30517578125,54.5806884765625,29.1595458984375,51.5899658203125
-0.1533203125,0.24609375,1.032470703125,-0.244140625,1.15203857421875,-0.05340576171875,56.0760498046875,29.1595458984375,51.2908935546875
-0.151123046875,0.246337890625,1.033447265625,-0.26702880859375,1.09100341796875,0.0,56.3751220703125,30.6549072265625,50.9918212890625
-0.15234375,0.247802734375,1.036865234375,-0.25177001953125,1.44195556640625,0.22125244140625,56.3751220703125,30.6549072265625,50.9918212890625
-0.15087890625,0.2490234375,1.0400390625,-0.17547607421875,1.35040283203125,0.1220703125,56.3751220703125,30.6549072265625,50.9918212890625
-0.15478515625,0.25146484375,1.038330078125,0.0,1.09100341796875,0.20599365234375,55.029296875,28.7109375,51.739501953125
-0.144775390625,0.25146484375,1.035888671875,0.19073486328125,1.4801025390625,0.14495849609375,55.926513671875,29.608154296875,51.141357421875
-0.140380859375,0.2490234375,1.02783203125,0.54168701171875,1.12152099609375,-0.00762939453125,55.1788330078125,30.0567626953125,51.2908935546875
-0.142822265625,0.2646484375,1.029541015625,0.5035400390625,1.5869140625,0.17547607421875,55.1788330078125,30.0567626953125,51.2908935546875
-0.14306640625,0.2451171875,1.02734375,0.518798828125,1.60980224609375,0.09918212890625,55.1788330078125,30.0567626953125,51.2908935546875
-0.1416015625,0.2392578125,1.0234375,0.38909912109375,1.7547607421875,-0.05340576171875,55.1788330078125,30.0567626953125,51.2908935546875
-0.135009765625,0.2421875,1.021240234375,-0.1068115234375,1.44195556640625,-0.213623046875,55.7769775390625,29.1595458984375,51.2908935546875
-0.135009765625,0.239501953125,1.032470703125,-0.0762939453125,1.21307373046875,-1.83868408203125,56.0760498046875,28.5614013671875,51.5899658203125
-0.13427734375,0.244140625,1.03564453125,-0.2899169921875,1.312255859375,1.94549560546875,55.926513671875,29.30908203125,51.4404296875
-0.13427734375,0.244873046875,1.03125,-0.28228759765625,1.6021728515625,0.274658203125,55.926513671875,29.30908203125,51.4404296875
-0.13427734375,0.24462890625,1.0361328125,-0.17547607421875,1.800537109375,-0.32806396484375,55.926513671875,29.30908203125,51.4404296875
-0.1337890625,0.244140625,1.026611328125,-0.18310546875,3.84521484375,-0.7781982421875,56.0760498046875,28.5614013671875,50.9918212890625
-0.130615234375,0.244873046875,1.02783203125,-0.1373291015625,1.48773193359375,-0.4730224609375,55.4779052734375,29.4586181640625,50.3936767578125
-0.132080078125,0.247802734375,1.0263671875,0.091552734375,1.31988525390625,-0.4425048828125,55.62744140625,29.608154296875,51.141357421875
-0.140625,0.2470703125,1.0283203125,-0.16021728515625,1.45721435546875,-0.63323974609375,55.62744140625,29.608154296875,51.141357421875
-0.139404296875,0.2490234375,1.037109375,-0.34332275390625,1.68609619140625,-0.60272216796875,55.62744140625,29.608154296875,51.141357421875
-0.14111328125,0.245849609375,1.033447265625,-0.34332275390625,1.8768310546875,-1.03759765625,55.62744140625,29.608154296875,51.141357421875
-0.141845703125,0.245361328125,1.029541015625,-1.86920166015625,1.88446044921875,-0.41961669921875,56.0760498046875,29.7576904296875,51.5899658203125
-0.147705078125,0.244873046875,1.02880859375,-0.42724609375,1.4495849609375,-0.4119873046875,56.3751220703125,30.0567626953125,50.9918212890625
-0.145751953125,0.243408203125,1.035400390625,-0.5645751953125,1.45721435546875,0.3204345703125,55.62744140625,28.411865234375,51.4404296875
-0.14599609375,0.248779296875,1.0439453125,-0.0457763671875,1.94549560546875,0.274658203125,55.62744140625,28.411865234375,51.4404296875
-0.14697265625,0.2490234375,1.03515625,0.2593994140625,1.739501953125,0.41961669921875,55.62744140625,28.411865234375,51.4404296875
-0.144775390625,0.254638671875,1.0302734375,0.31280517578125,1.7547607421875,0.457763671875,55.7769775390625,30.6549072265625,50.6927490234375
-0.14306640625,0.255615234375,1.02490234375,0.63323974609375,2.1820068359375,-0.60272216796875,56.9732666015625,30.0567626953125,51.8890380859375
-0.145751953125,0.24755859375,1.020263671875,0.5950927734375,1.8768310546875,-0.43487548828125,55.328369140625,28.7109375,51.4404296875
-0.1455078125,0.245849609375,1.022216796875,0.38909912109375,1.97601318359375,-0.37384033203125,55.328369140625,28.7109375,51.4404296875
-0.144287109375,0.245849609375,1.028076171875,0.1068115234375,2.72369384765625,-0.25177001953125,55.328369140625,28.7109375,51.4404296875
-0.141357421875,0.246826171875,1.0283203125,-0.2899169921875,2.7008056640625,-0.64849853515625,55.328369140625,28.7109375,51.4404296875
-0.14208984375,0.2431640625,1.023193359375,-0.5340576171875,2.0904541015625,-0.6103515625,56.2255859375,29.9072265625,52.03857421875
-0.1396484375,0.245361328125,1.020751953125,-0.95367431640625,0.8544921875,0.22125244140625,55.7769775390625,30.6549072265625,51.8890380859375
-0.14013671875,0.248046875,1.02880859375,-1.06048583984375,0.2899169921875,0.9613037109375,55.62744140625,30.206298828125,50.84228515625
-0.143310546875,0.241455078125,1.041259765625,-1.0528564453125,0.43487548828125,0.67901611328125,55.62744140625,30.206298828125,50.84228515625
-0.145751953125,0.249755859375,1.032958984375,-0.79345703125,2.0751953125,0.579833984375,54.8797607421875,29.1595458984375,51.2908935546875
-0.137939453125,0.25,1.041259765625,-0.19073486328125,2.62451171875,-0.31280517578125,55.328369140625,30.206298828125,51.739501953125
-0.1357421875,0.26513671875,1.029052734375,0.22125244140625,2.61688232421875,-0.69427490234375,55.328369140625,30.206298828125,51.739501953125
-0.13720703125,0.24853515625,1.021484375,0.457763671875,2.4261474609375,-0.9918212890625,55.328369140625,30.206298828125,51.739501953125
-0.1357421875,0.242919921875,1.020263671875,0.25177001953125,1.5869140625,-0.6561279296875,56.6741943359375,29.4586181640625,51.5899658203125
-0.1328125,0.24609375,1.02490234375,0.06866455078125,1.46484375,-0.6256103515625,55.1788330078125,29.7576904296875,51.2908935546875
-0.1337890625,0.239013671875,1.015869140625,-0.8392333984375,1.434326171875,-0.22125244140625,55.926513671875,30.206298828125,51.141357421875
-0.14111328125,0.247802734375,1.025634765625,-0.6561279296875,1.0986328125,-0.38909912109375,55.7769775390625,28.5614013671875,51.2908935546875
-0.139404296875,0.24658203125,1.024658203125,-0.64849853515625,0.91552734375,-0.08392333984375,55.7769775390625,28.5614013671875,51.2908935546875
-0.144287109375,0.241455078125,1.033935546875,-0.8697509765625,1.251220703125,-0.14495849609375,55.7769775390625,28.5614013671875,51.2908935546875
-0.14453125,0.242431640625,1.01611328125,-0.8544921875,2.06756591796875,-1.953125,56.82373046875,30.206298828125,51.141357421875
-0.148193359375,0.246826171875,1.035888671875,-0.87738037109375,2.38800048828125,-0.14495849609375,54.2816162109375,30.3558349609375,51.5899658203125
-0.1416015625,0.2509765625,1.028564453125,-0.762939453125,2.51007080078125,-0.06866455078125,54.43115234375,29.608154296875,50.244140625
-0.143310546875,0.234619140625,1.03466796875,-0.8544921875,2.00653076171875,0.0457763671875,55.926513671875,30.206298828125,51.739501953125
-0.14306640625,0.23583984375,1.0224609375,-0.4730224609375,1.83868408203125,-0.26702880859375,55.029296875,29.9072265625,52.03857421875
-0.15576171875,0.246826171875,1.03271484375,-0.29754638671875,1.67083740234375,-0.34332275390625,55.029296875,29.9072265625,52.03857421875
-0.14111328125,0.250244140625,1.03125,-0.51116943359375,1.73187255859375,-0.3204345703125,55.029296875,29.9072265625,52.03857421875
-0.136474609375,0.248291015625,1.029296875,-0.38909912109375,1.89971923828125,-0.41961669921875,55.1788330078125,30.6549072265625,50.9918212890625
-0.140625,0.24853515625,1.0283203125,-0.457763671875,2.1820068359375,-0.52642822265625,56.2255859375,29.9072265625,52.03857421875
-0.135986328125,0.246826171875,1.035888671875,-0.51116943359375,2.01416015625,-0.72479248046875,55.926513671875,29.9072265625,51.4404296875
-0.13818359375,0.248046875,1.033935546875,-0.32806396484375,1.495361328125,-0.701904296875,56.9732666015625,30.6549072265625,50.3936767578125
-0.13916015625,0.244140625,1.029541015625,-0.74005126953125,1.4495849609375,-0.518798828125,56.9732666015625,30.6549072265625,50.3936767578125
-0.141357421875,0.23974609375,1.03466796875,-0.64849853515625,0.99945068359375,0.06103515625,56.9732666015625,30.6549072265625,50.3936767578125
-0.146240234375,0.2412109375,1.0458984375,-0.51116943359375,1.18255615234375,0.2899169921875,56.9732666015625,30.6549072265625,50.3936767578125
-0.1435546875,0.244140625,1.058837890625,-0.579833984375,2.716064453125,-0.09918212890625,55.62744140625,29.9072265625,50.84228515625
-0.125244140625,0.248046875,1.029541015625,1.94549560546875,2.9449462890625,-0.6256103515625,56.6741943359375,30.3558349609375,51.5899658203125
-0.154296875,0.249267578125,1.0263671875,0.8392333984375,1.8310546875,-1.36566162109375,55.926513671875,28.7109375,50.543212890625
-0.14208984375,0.24462890625,1.02783203125,-0.20599365234375,2.02178955078125,-0.6866455078125,56.3751220703125,30.0567626953125,50.6927490234375
-0.13134765625,0.247314453125,1.018310546875,-0.4730224609375,1.82342529296875,-0.8697509765625,56.9732666015625,29.4586181640625,50.9918212890625
-0.130126953125,0.251953125,1.0107421875,-0.84686279296875,1.4801025390625,-0.4119873046875,54.8797607421875,29.7576904296875,51.2908935546875
-0.1396484375,0.24169921875,1.025390625,-1.06048583984375,2.18963623046875,-0.213623046875,56.6741943359375,30.6549072265625,51.5899658203125
-0.138916015625,0.244384765625,1.03125,-1.1138916015625,2.3956298828125,-0.091552734375,55.328369140625,29.010009765625,51.4404296875
-0.1357421875,0.24169921875,1.0263671875,-1.15203857421875,1.65557861328125,-0.6256103515625,55.62744140625,30.50537109375,51.141357421875
-0.13720703125,0.24462890625,1.030517578125,-0.8697509765625,0.84686279296875,-0.79345703125,57.421875,28.7109375,52.63671875
-0.15625,0.24462890625,1.038330078125,-0.885009765625,0.92315673828125,-0.70953369140625,56.82373046875,29.9072265625,51.4404296875
-0.15234375,0.241943359375,1.042236328125,-0.823974609375,1.7852783203125,-0.45013427734375,55.7769775390625,30.6549072265625,51.5899658203125
-0.156494140625,0.243896484375,1.044677734375,-0.7171630859375,3.2196044921875,-0.51116943359375,55.7769775390625,30.6549072265625,51.5899658203125
-0.1533203125,0.24658203125,1.04443359375,-0.701904296875,4.1046142578125,-0.5035400390625,55.7769775390625,30.6549072265625,51.5899658203125
-0.14892578125,0.238037109375,1.0400390625,-0.0762939453125,3.875732421875,-0.72479248046875,56.0760498046875,29.7576904296875,50.9918212890625
-0.14306640625,0.2490234375,1.032958984375,-0.1220703125,2.57110595703125,-0.518798828125,55.328369140625,29.608154296875,51.141357421875
-0.14501953125,0.26513671875,1.031005859375,-0.08392333984375,1.15203857421875,0.1220703125,55.4779052734375,29.7576904296875,51.8890380859375
-0.146728515625,0.248046875,1.031982421875,-0.0457763671875,0.99945068359375,0.2288818359375,55.926513671875,29.9072265625,51.739501953125
-0.147216796875,0.245361328125,1.033203125,-0.17547607421875,1.27410888671875,0.2288818359375,55.926513671875,29.9072265625,51.739501953125
-0.151123046875,0.24755859375,1.02392578125,-0.26702880859375,1.89208984375,0.1220703125,55.926513671875,29.9072265625,51.739501953125
-0.14892578125,0.247802734375,1.02978515625,-1.953125,1.64031982421875,-0.38909912109375,55.926513671875,27.813720703125,51.141357421875
-0.14697265625,0.248291015625,1.029541015625,0.3204345703125,3.89862060546875,-0.1220703125,55.926513671875,29.30908203125,51.4404296875
-0.14453125,0.243408203125,1.046630859375,0.28228759765625,1.46484375,0.091552734375,55.7769775390625,28.8604736328125,50.9918212890625
-0.14208984375,0.2451171875,1.028564453125,0.1678466796875,2.044677734375,-0.19073486328125,56.82373046875,29.608154296875,51.141357421875
-0.13134765625,0.24267578125,1.023193359375,-0.17547607421875,2.2735595703125,0.03814697265625,56.82373046875,29.608154296875,51.141357421875
-0.128662109375,0.24609375,1.02783203125,-0.16021728515625,2.0599365234375,-0.32806396484375,56.82373046875,29.608154296875,51.141357421875
-0.129638671875,0.24365234375,1.021240234375,-0.152587890625,0.0,-0.42724609375,56.82373046875,29.608154296875,51.141357421875
-0.126708984375,0.239013671875,1.024169921875,-0.1220703125,1.67083740234375,-0.23651123046875,56.3751220703125,29.4586181640625,52.1881103515625
-0.1337890625,0.23876953125,1.016845703125,-0.2899169921875,1.4801025390625,-1.94549560546875,56.524658203125,30.50537109375,51.739501953125
-0.14208984375,0.2421875,1.030517578125,-0.70953369140625,1.03759765625,-0.05340576171875,55.926513671875,29.010009765625,52.03857421875
-0.14453125,0.239990234375,1.03125,-1.2359619140625,1.59454345703125,0.37384033203125,55.926513671875,29.010009765625,52.03857421875
-0.14111328125,0.24169921875,1.03955078125,-1.07574462890625,1.83868408203125,0.45013427734375,55.926513671875,29.010009765625,52.03857421875
-0.147216796875,0.245849609375,1.040283203125,-0.7171630859375,2.62451171875,0.05340576171875,55.926513671875,29.010009765625,52.03857421875
-0.14306640625,0.25439453125,1.03662109375,-0.1373291015625,2.31170654296875,0.05340576171875,56.0760498046875,30.3558349609375,51.2908935546875
-0.147216796875,0.2529296875,1.031005859375,0.22125244140625,2.44903564453125,-0.1678466796875,55.62744140625,29.30908203125,52.03857421875
-0.147705078125,0.2529296875,1.029541015625,0.5645751953125,2.64739990234375,-0.518798828125,55.4779052734375,30.3558349609375,50.3936767578125
-0.148193359375,0.25390625,1.024169921875,0.732421875,2.5787353515625,-0.60272216796875,55.4779052734375,30.3558349609375,50.3936767578125
-0.146484375,0.24462890625,1.026123046875,0.14495849609375,2.166748046875,0.08392333984375,55.4779052734375,30.3558349609375,50.3936767578125
-0.148681640625,0.24951171875,1.019287109375,-0.03814697265625,1.953125,1.89971923828125,55.4779052734375,30.3558349609375,50.3936767578125
-0.1435546875,0.247314453125,1.019775390625,-0.1373291015625,1.28173828125,0.28228759765625,55.328369140625,29.608154296875,52.337646484375
-0.14501953125,0.249755859375,1.025390625,-0.38909912109375,0.54931640625,0.7781982421875,54.2816162109375,28.8604736328125,51.2908935546875
-0.146484375,0.24365234375,1.03271484375,-0.5035400390625,0.3509521484375,0.89263916015625,55.4779052734375,30.0567626953125,51.8890380859375
-0.151123046875,0.24267578125,1.0458984375,-0.4730224609375,1.09100341796875,0.885009765625,56.6741943359375,29.7576904296875,50.9918212890625
-0.147705078125,0.243408203125,1.03857421875,-0.46539306640625,2.044677734375,0.52642822265625,56.6741943359375,29.7576904296875,50.9918212890625
-0.143310546875,0.245361328125,1.025390625,-0.5035400390625,2.288818359375,0.1068115234375,56.6741943359375,29.7576904296875,50.9918212890625
-0.137939453125,0.24755859375,1.035888671875,-0.1068115234375,2.41851806640625,-0.11444091796875,56.6741943359375,29.7576904296875,50.9918212890625
-0.12890625,0.263916015625,1.03662109375,-0.02288818359375,1.5411376953125,-0.48065185546875,56.524658203125,29.9072265625,51.739501953125
-0.131103515625,0.248291015625,1.039794921875,0.1068115234375,1.04522705078125,-0.57220458984375,56.2255859375,29.608154296875,51.141357421875
-0.133056640625,0.245361328125,1.036865234375,0.030517578125,1.42669677734375,-0.41961669921875,55.7769775390625,30.3558349609375,52.1881103515625
-0.134765625,0.244384765625,1.02734375,-0.213623046875,1.70135498046875,-0.1220703125,55.926513671875,29.9072265625,52.337646484375
-0.13427734375,0.24755859375,1.034912109375,-0.22125244140625,1.60980224609375,-0.274658203125,55.926513671875,29.9072265625,52.337646484375
-0.136962890625,0.2509765625,1.03564453125,0.335693359375,1.556396484375,-0.244140625,55.926513671875,29.9072265625,52.337646484375
-0.133544921875,0.248291015625,1.03515625,0.45013427734375,1.9683837890625,-0.2288818359375,55.926513671875,28.411865234375,50.84228515625
-0.134033203125,0.244873046875,1.031494140625,0.42724609375,2.0751953125,-0.396728515625,55.4779052734375,30.0567626953125,50.9918212890625
-0.1416015625,0.2646484375,1.016357421875,0.6256103515625,1.99127197265625,-0.732421875,55.62744140625,29.608154296875,52.03857421875
-0.137939453125,0.248779296875,1.02783203125,0.79345703125,1.27410888671875,-0.9918212890625,55.62744140625,29.608154296875,52.03857421875
-0.14306640625,0.2431640625,1.02734375,0.51116943359375,1.556396484375,-0.701904296875,55.62744140625,29.608154296875,52.03857421875
-0.14599609375,0.244384765625,1.0224609375,0.5340576171875,1.97601318359375,-0.3814697265625,55.62744140625,29.608154296875,52.03857421875
-0.147216796875,0.241455078125,1.025634765625,0.3204345703125,2.18963623046875,-0.6256103515625,56.3751220703125,29.7576904296875,51.8890380859375
-0.146728515625,0.248291015625,1.020263671875,0.0762939453125,1.73187255859375,-0.63323974609375,55.7769775390625,30.3558349609375,50.0946044921875
-0.146728515625,0.248291015625,1.02197265625,-0.03814697265625,1.57928466796875,-0.1983642578125,55.7769775390625,29.7576904296875,51.2908935546875
-0.146484375,0.248046875,1.01708984375,-0.22125244140625,1.42669677734375,-0.18310546875,55.7769775390625,29.7576904296875,51.2908935546875
-0.14453125,0.25,1.02734375,-0.25177001953125,1.5869140625,-0.152587890625,55.7769775390625,29.7576904296875,51.2908935546875
-0.149658203125,0.245849609375,1.0283203125,-0.54931640625,1.53350830078125,0.152587890625,56.524658203125,29.9072265625,51.141357421875
-0.14599609375,0.252197265625,1.026611328125,-0.78582763671875,1.13677978515625,0.2288818359375,55.7769775390625,29.1595458984375,52.1881103515625
-0.14794921875,0.24951171875,1.0283203125,-1.068115234375,0.9765625,0.57220458984375,55.62744140625,29.30908203125,52.03857421875
-0.145263671875,0.248046875,1.031982421875,-0.80108642578125,1.64031982421875,0.30517578125,56.524658203125,30.206298828125,52.337646484375
-0.1435546875,0.248291015625,1.030029296875,-0.885009765625,1.60980224609375,-0.06103515625,56.3751220703125,30.3558349609375,52.4871826171875
-0.142822265625,0.2451171875,1.03564453125,-0.55694580078125,1.4190673828125,-0.2593994140625,56.3751220703125,30.3558349609375,52.4871826171875
-0.14501953125,0.234619140625,1.0390625,-0.3509521484375,1.54876708984375,1.8768310546875,56.3751220703125,30.3558349609375,52.4871826171875
-0.1376953125,0.235107421875,1.03466796875,-0.3662109375,1.65557861328125,-0.42724609375,55.328369140625,29.30908203125,51.4404296875
-0.138916015625,0.243896484375,1.030029296875,-0.18310546875,1.83868408203125,-0.396728515625,55.328369140625,29.30908203125,51.4404296875
-0.13671875,0.246337890625,1.03564453125,-0.45013427734375,1.6326904296875,-0.00762939453125,55.7769775390625,30.9539794921875,51.5899658203125
-0.13427734375,0.248291015625,1.028076171875,-0.30517578125,1.220703125,0.12969970703125,56.3751220703125,30.6549072265625,50.9918212890625
-0.134033203125,0.24609375,1.030517578125,-0.05340576171875,1.12152099609375,0.19073486328125,56.3751220703125,30.6549072265625,50.9918212890625
-0.13916015625,0.243408203125,1.03076171875,-0.41961669921875,1.41143798828125,0.19073486328125,56.3751220703125,30.6549072265625,50.9918212890625
-0.140380859375,0.247802734375,1.035400390625,-0.23651123046875,1.6326904296875,0.12969970703125,55.926513671875,30.206298828125,50.84228515625
-0.141357421875,0.24365234375,1.032958984375,-0.38909912109375,2.5787353515625,0.08392333984375,55.926513671875,29.608154296875,52.337646484375
-0.138671875,0.247802734375,1.03125,-0.29754638671875,2.37274169921875,-0.274658203125,55.62744140625,29.9072265625,51.141357421875
-0.13623046875,0.249755859375,1.031005859375,1.922607421875,2.23541259765625,-0.58746337890625,55.62744140625,29.9072265625,51.141357421875
-0.13134765625,0.25048828125,1.02490234375,-1.9073486328125,1.54876708984375,-0.48828125,55.62744140625,29.9072265625,51.141357421875
-0.139404296875,0.24755859375,1.027099609375,-0.32806396484375,1.068115234375,-0.08392333984375,55.62744140625,29.9072265625,51.141357421875
-0.144775390625,0.24560546875,1.0244140625,-0.457763671875,1.60980224609375,1.89208984375,55.62744140625,29.9072265625,51.141357421875
-0.14404296875,0.2470703125,1.03125,-0.58746337890625,2.08282470703125,-0.1068115234375,56.2255859375,29.608154296875,52.63671875
-0.140869140625,0.24658203125,1.025634765625,-0.6103515625,1.76239013671875,-1.922607421875,55.328369140625,29.608154296875,51.4404296875
-0.1416015625,0.248046875,1.0322265625,-0.3662109375,1.5106201171875,1.94549560546875,56.3751220703125,29.4586181640625,52.4871826171875
-0.1455078125,0.25146484375,1.0341796875,-0.2899169921875,1.35040283203125,-0.213623046875,56.3751220703125,29.4586181640625,52.4871826171875
-0.14697265625,0.2490234375,1.038818359375,0.1373291015625,2.14385986328125,-0.05340576171875,56.3751220703125,29.4586181640625,52.4871826171875
-0.150634765625,0.249267578125,1.035888671875,1.8310546875,3.08990478515625,0.1373291015625,56.3751220703125,29.4586181640625,52.4871826171875
-0.14404296875,0.25341796875,1.033935546875,-0.0762939453125,3.19671630859375,-0.457763671875,55.7769775390625,30.0567626953125,52.1881103515625
-0.1376953125,0.25048828125,1.023193359375,-1.9073486328125,2.37274169921875,-0.1373291015625,57.2723388671875,28.8604736328125,51.2908935546875
