Accel_X,Accel_Y,Accel_Z,GYRO_X,GYRO_Y,GYRO_Z,Magn_X,Magn_Y,Magn_Z
-0.5849609375,-0.1865234375,0.842529296875,0.1220703125,2.40325927734375,0.274658203125,68.3380126953125,53.3843994140625,5.8319091796875
-0.581787109375,-0.178466796875,0.84716796875,0.457763671875,3.86810302734375,0.00762939453125,67.4407958984375,51.8890380859375,6.4300537109375
-0.583984375,-0.182861328125,0.8525390625,1.91497802734375,1.62506103515625,-0.1373291015625,66.9921875,52.63671875,5.9814453125
-0.585205078125,-0.18359375,0.84814453125,-0.0457763671875,1.47247314453125,-1.89208984375,68.6370849609375,51.5899658203125,4.3365478515625
-0.57958984375,-0.185791015625,0.84765625,-0.28228759765625,1.12152099609375,0.2593994140625,67.291259765625,53.533935546875,4.78515625
-0.580078125,-0.179931640625,0.84765625,-0.4425048828125,1.28173828125,0.25177001953125,67.889404296875,53.23486328125,5.9814453125
-0.584716796875,-0.180908203125,0.8447265625,-0.42724609375,1.4801025390625,1.89971923828125,67.889404296875,53.533935546875,5.682373046875
-0.58642578125,-0.185302734375,0.849853515625,-0.35858154296875,1.922607421875,0.06866455078125,67.291259765625,53.23486328125,5.38330078125
-0.583251953125,-0.18701171875,0.85009765625,-0.4119873046875,1.7852783203125,1.79290771484375,68.1884765625,52.63671875,5.084228515625
-0.580078125,-0.18212890625,0.858154296875,-0.58746337890625,3.85284423828125,0.03814697265625,67.889404296875,52.935791015625,5.084228515625
-0.580078125,-0.186767578125,0.84619140625,-0.64849853515625,1.65557861328125,1.800537109375,67.59033203125,52.63671875,5.9814453125
-0.5830078125,-0.1796875,0.849853515625,-0.4119873046875,1.83868408203125,1.89208984375,67.59033203125,52.03857421875,5.9814453125
-0.580078125,-0.201416015625,0.84375,-0.48065185546875,0.0762939453125,0.28228759765625,67.4407958984375,52.7862548828125,5.2337646484375
-0.58349609375,-0.1826171875,0.84375,-0.5035400390625,2.32696533203125,-1.82342529296875,67.7398681640625,53.9825439453125,4.6356201171875
-0.58544921875,-0.177490234375,0.8505859375,-0.43487548828125,2.61688232421875,-0.335693359375,68.1884765625,53.23486328125,5.38330078125
-0.587158203125,-0.181396484375,0.84814453125,-0.23651123046875,2.3040771484375,-0.3814697265625,66.8426513671875,52.4871826171875,5.8319091796875
-0.58642578125,-0.184326171875,0.848876953125,-0.09918212890625,2.0751953125,-0.12969970703125,68.0389404296875,51.5899658203125,5.5328369140625
-0.581298828125,-0.181884765625,0.851318359375,-0.18310546875,2.288818359375,-0.19073486328125,67.4407958984375,53.0853271484375,4.9346923828125
-0.58544921875,-0.172607421875,0.8466796875,0.06103515625,1.983642578125,-0.2593994140625,68.1884765625,52.03857421875,5.682373046875
-0.580810546875,-0.18212890625,0.8515625,-1.8310546875,2.28118896484375,0.17547607421875,66.8426513671875,52.4871826171875,5.2337646484375
-0.58447265625,-0.176025390625,0.8564453125,0.16021728515625,2.6092529296875,-0.20599365234375,68.0389404296875,50.6927490234375,4.9346923828125
-0.5849609375,-0.177001953125,0.84521484375,-0.28228759765625,2.716064453125,-0.34332275390625,67.1417236328125,53.0853271484375,6.1309814453125
-0.58642578125,-0.18115234375,0.846435546875,-0.49591064453125,2.54058837890625,-0.19073486328125,68.78662109375,52.935791015625,5.682373046875
-0.583251953125,-0.177001953125,0.8466796875,-0.5035400390625,2.6092529296875,-0.54168701171875,67.4407958984375,51.2908935546875,6.7291259765625
-0.580810546875,-0.180419921875,0.850341796875,-0.518798828125,2.0751953125,-0.1983642578125,67.7398681640625,52.1881103515625,6.1309814453125
-0.582763671875,-0.188720703125,0.844970703125,-0.54931640625,2.0904541015625,-0.32806396484375,67.1417236328125,53.0853271484375,5.5328369140625
-0.58056640625,-0.1904296875,0.8466796875,-0.74005126953125,1.9073486328125,-0.43487548828125,67.1417236328125,53.0853271484375,5.5328369140625
-0.58203125,-0.1845703125,0.851318359375,-0.61798095703125,3.875732421875,-0.091552734375,67.1417236328125,53.0853271484375,5.5328369140625
-0.58203125,-0.18359375,0.8515625,-0.16021728515625,1.861572265625,-0.19073486328125,68.0389404296875,52.4871826171875,4.9346923828125
-0.582275390625,-0.186767578125,0.855224609375,-0.4425048828125,1.56402587890625,-0.05340576171875,66.693115234375,51.739501953125,6.57958984375
-0.581787109375,-0.18603515625,0.828857421875,-0.1373291015625,1.83868408203125,0.091552734375,68.0389404296875,52.7862548828125,5.8319091796875
-0.58251953125,-0.18212890625,0.830810546875,-0.40435791015625,1.8157958984375,-1.9378662109375,68.0389404296875,52.7862548828125,5.8319091796875
-0.581787109375,-0.181396484375,0.85205078125,-0.35858154296875,1.77001953125,0.0457763671875,68.0389404296875,52.7862548828125,5.8319091796875
-0.583984375,-0.180419921875,0.8515625,-0.3509521484375,1.800537109375,0.03814697265625,67.7398681640625,51.8890380859375,5.5328369140625
-0.5810546875,-0.184326171875,0.8427734375,-0.43487548828125,1.79290771484375,0.08392333984375,67.4407958984375,53.0853271484375,5.5328369140625
-0.583251953125,-0.1796875,0.854736328125,-0.4730224609375,1.54876708984375,-0.43487548828125,68.78662109375,53.8330078125,5.682373046875
-0.583740234375,-0.185302734375,0.84814453125,-0.38909912109375,1.922607421875,0.1983642578125,68.78662109375,53.8330078125,5.682373046875
-0.5849609375,-0.181884765625,0.84716796875,-0.49591064453125,1.9378662109375,-0.3204345703125,68.78662109375,53.8330078125,5.682373046875
-0.58251953125,-0.18408203125,0.8515625,-0.06866455078125,0.0,-0.41961669921875,68.78662109375,53.8330078125,5.682373046875
-0.586181640625,-0.1865234375,0.848876953125,-0.17547607421875,1.54876708984375,0.0,66.8426513671875,51.5899658203125,4.9346923828125
-0.584228515625,-0.1875,0.84912109375,-0.06103515625,1.73187255859375,-0.1068115234375,68.1884765625,52.935791015625,3.5888671875
-0.58544921875,-0.185546875,0.8486328125,-0.09918212890625,1.7547607421875,-0.00762939453125,68.1884765625,52.935791015625,3.5888671875
-0.582275390625,-0.18359375,0.85205078125,-0.12969970703125,1.46484375,-1.922607421875,68.1884765625,52.935791015625,3.5888671875
-0.587890625,-0.182373046875,0.8447265625,-0.2288818359375,1.5716552734375,-0.030517578125,68.1884765625,52.935791015625,3.5888671875
-0.582763671875,-0.178466796875,0.8505859375,-0.46539306640625,1.50299072265625,0.06866455078125,66.9921875,52.337646484375,4.486083984375
-0.580322265625,-0.185546875,0.845458984375,-0.05340576171875,1.4495849609375,-0.03814697265625,67.4407958984375,52.4871826171875,4.6356201171875
-0.58544921875,-0.182861328125,0.853271484375,-0.31280517578125,1.5106201171875,0.18310546875,67.59033203125,52.935791015625,5.38330078125
-0.5859375,-0.183349609375,0.84814453125,1.94549560546875,1.53350830078125,0.18310546875,67.59033203125,52.935791015625,5.38330078125
-0.5859375,-0.17626953125,0.847900390625,1.861572265625,1.28173828125,1.8768310546875,67.59033203125,52.935791015625,5.38330078125
-0.583984375,-0.179931640625,0.85009765625,-0.14495849609375,1.51824951171875,0.02288818359375,67.7398681640625,53.0853271484375,4.9346923828125
-0.58203125,-0.1787109375,0.84765625,-0.1983642578125,1.54876708984375,-0.17547607421875,68.0389404296875,53.6834716796875,5.8319091796875
-0.585205078125,-0.181640625,0.84814453125,-0.2288818359375,1.64794921875,-1.89971923828125,67.291259765625,53.533935546875,5.38330078125
-0.583740234375,-0.178955078125,0.84912109375,-0.22125244140625,1.77001953125,1.93023681640625,67.59033203125,52.935791015625,6.878662109375
-0.584716796875,-0.181640625,0.84619140625,-0.152587890625,1.8310546875,0.08392333984375,67.4407958984375,52.7862548828125,4.9346923828125
-0.58447265625,-0.18505859375,0.8486328125,-0.06103515625,1.91497802734375,-0.11444091796875,67.4407958984375,52.7862548828125,4.9346923828125
-0.583740234375,-0.18408203125,0.850341796875,-0.2899169921875,1.76239013671875,0.1678466796875,67.4407958984375,52.7862548828125,4.9346923828125
-0.580322265625,-0.186279296875,0.8486328125,-0.38909912109375,2.02178955078125,0.14495849609375,68.6370849609375,52.4871826171875,4.6356201171875
-0.581787109375,-0.2021484375,0.847900390625,-0.18310546875,2.06756591796875,-0.06866455078125,67.59033203125,52.337646484375,5.38330078125
-0.58349609375,-0.185791015625,0.851318359375,-0.1678466796875,2.0751953125,0.1983642578125,66.8426513671875,52.7862548828125,5.5328369140625
-0.5810546875,-0.181640625,0.8525390625,-0.1220703125,2.31170654296875,0.16021728515625,66.8426513671875,52.7862548828125,5.5328369140625
-0.581298828125,-0.1806640625,0.86865234375,-0.091552734375,2.166748046875,0.1220703125,66.8426513671875,52.7862548828125,5.5328369140625
-0.578857421875,-0.17724609375,0.85400390625,-0.25177001953125,2.34222412109375,0.12969970703125,68.487548828125,52.63671875,5.38330078125
-0.5849609375,-0.181640625,0.8544921875,-0.06103515625,2.105712890625,0.19073486328125,67.291259765625,51.4404296875,5.9814453125
-0.5849609375,-0.177734375,0.8505859375,-0.244140625,2.105712890625,0.06103515625,67.59033203125,52.337646484375,5.38330078125
-0.580322265625,-0.181640625,0.852783203125,-0.23651123046875,1.9073486328125,-0.1983642578125,67.59033203125,52.337646484375,5.38330078125
-0.583251953125,-0.182861328125,0.849365234375,-0.1373291015625,1.861572265625,0.1983642578125,67.59033203125,52.337646484375,5.38330078125
-0.58251953125,-0.180419921875,0.850830078125,-0.1220703125,3.88336181640625,0.19073486328125,68.0389404296875,52.7862548828125,4.6356201171875
-0.583251953125,-0.17919921875,0.84814453125,-0.274658203125,1.85394287109375,-0.12969970703125,67.1417236328125,53.3843994140625,5.8319091796875
-0.580810546875,-0.18505859375,0.849609375,-0.38909912109375,0.0,-1.9378662109375,66.9921875,53.533935546875,6.280517578125
-0.581787109375,-0.1884765625,0.851806640625,-0.335693359375,2.105712890625,-0.22125244140625,66.9921875,53.533935546875,6.280517578125
-0.584716796875,-0.181396484375,0.844970703125,-0.396728515625,2.41851806640625,0.213623046875,66.9921875,53.533935546875,6.280517578125
-0.580078125,-0.177001953125,0.85302734375,-0.09918212890625,2.8076171875,-0.29754638671875,66.9921875,53.533935546875,6.280517578125
-0.58447265625,-0.184814453125,0.8486328125,-0.02288818359375,2.777099609375,-1.85394287109375,67.291259765625,52.63671875,5.9814453125
-0.583740234375,-0.18115234375,0.85302734375,-0.1983642578125,2.54058837890625,0.12969970703125,67.4407958984375,53.0853271484375,5.8319091796875
-0.58447265625,-0.18212890625,0.852783203125,-0.18310546875,2.32696533203125,0.1220703125,67.4407958984375,53.0853271484375,5.8319091796875
-0.580322265625,-0.1845703125,0.84814453125,-0.3204345703125,2.52532958984375,-0.0457763671875,67.4407958984375,53.0853271484375,5.8319091796875
-0.582763671875,-0.184814453125,0.850341796875,1.94549560546875,2.471923828125,-0.244140625,67.4407958984375,53.0853271484375,5.8319091796875
-0.5830078125,-0.18359375,0.849853515625,-0.0762939453125,2.685546875,-0.00762939453125,67.291259765625,52.935791015625,4.78515625
-0.580810546875,-0.18017578125,0.85107421875,-0.14495849609375,2.5634765625,0.28228759765625,67.1417236328125,53.6834716796875,6.1309814453125
-0.582763671875,-0.177490234375,0.8515625,0.16021728515625,2.61688232421875,0.091552734375,67.1417236328125,53.3843994140625,5.5328369140625
-0.588623046875,-0.177734375,0.851318359375,0.1220703125,2.18963623046875,0.19073486328125,67.1417236328125,53.3843994140625,5.5328369140625
-0.583740234375,-0.182373046875,0.854248046875,0.40435791015625,2.12860107421875,-0.2593994140625,67.1417236328125,53.3843994140625,5.5328369140625
-0.58056640625,-0.186767578125,0.8486328125,0.26702880859375,1.8157958984375,0.1373291015625,67.291259765625,52.03857421875,4.78515625
-0.583984375,-0.189208984375,0.850830078125,0.51116943359375,0.03814697265625,-1.9378662109375,67.889404296875,52.03857421875,5.682373046875
-0.58203125,-0.1865234375,0.850341796875,0.20599365234375,2.09808349609375,0.335693359375,67.7398681640625,52.7862548828125,5.8319091796875
-0.581298828125,-0.181396484375,0.850341796875,0.0457763671875,2.06756591796875,0.06866455078125,67.7398681640625,52.7862548828125,5.8319091796875
-0.58447265625,-0.17724609375,0.853271484375,0.0762939453125,2.410888671875,0.55694580078125,67.7398681640625,52.7862548828125,5.8319091796875
-0.58203125,-0.174072265625,0.850341796875,-0.30517578125,2.32696533203125,0.06103515625,67.4407958984375,52.4871826171875,4.9346923828125
-0.587646484375,-0.171875,0.8544921875,-0.213623046875,2.3651123046875,0.213623046875,66.5435791015625,52.1881103515625,5.2337646484375
-0.5849609375,-0.17431640625,0.854736328125,-0.274658203125,2.11334228515625,0.0152587890625,66.9921875,53.23486328125,5.084228515625
-0.585205078125,-0.1796875,0.84375,-0.2899169921875,2.105712890625,-0.26702880859375,66.9921875,53.23486328125,5.084228515625
-0.5859375,-0.179443359375,0.8525390625,-0.274658203125,2.0599365234375,-0.030517578125,66.9921875,53.23486328125,5.084228515625
-0.586181640625,-0.1806640625,0.852783203125,-0.54168701171875,3.84521484375,-0.06103515625,67.889404296875,53.533935546875,5.9814453125
-0.5859375,-0.18212890625,0.8486328125,-0.61798095703125,1.71661376953125,-1.9073486328125,67.4407958984375,52.1881103515625,6.4300537109375
-0.583984375,-0.18701171875,0.85302734375,-0.86212158203125,1.73187255859375,-0.19073486328125,67.889404296875,52.935791015625,5.682373046875
-0.583740234375,-0.185546875,0.845947265625,-0.6103515625,1.7852783203125,0.335693359375,67.889404296875,52.935791015625,5.682373046875
-0.58203125,-0.184814453125,0.856201171875,-0.83160400390625,1.65557861328125,0.1220703125,67.889404296875,52.935791015625,5.682373046875
-0.580322265625,-0.183349609375,0.84912109375,-0.61798095703125,2.0294189453125,0.11444091796875,67.7398681640625,52.4871826171875,6.1309814453125
-0.583251953125,-0.185791015625,0.852294921875,-0.83160400390625,2.00653076171875,0.00762939453125,66.9921875,52.337646484375,5.682373046875
-0.5849609375,-0.177490234375,0.849609375,-0.41961669921875,0.1220703125,-0.1373291015625,67.889404296875,52.03857421875,5.9814453125
-0.582763671875,-0.1796875,0.853515625,-0.51116943359375,2.05230712890625,0.335693359375,67.889404296875,52.03857421875,5.9814453125
-0.58447265625,-0.179931640625,0.849853515625,-0.030517578125,2.17437744140625,-1.85394287109375,67.889404296875,52.03857421875,5.9814453125
-0.583740234375,-0.178955078125,0.845458984375,0.1983642578125,2.18963623046875,-1.922607421875,67.889404296875,52.03857421875,5.9814453125
-0.583740234375,-0.181884765625,0.850341796875,-0.25177001953125,2.2125244140625,0.03814697265625,66.9921875,52.03857421875,5.084228515625
-0.589111328125,-0.18310546875,0.848388671875,0.31280517578125,1.76239013671875,-0.00762939453125,66.9921875,52.935791015625,4.78515625
-0.582275390625,-0.18212890625,0.851806640625,0.35858154296875,2.0751953125,0.14495849609375,67.4407958984375,52.7862548828125,5.5328369140625
-0.586669921875,-0.190185546875,0.8486328125,0.4425048828125,1.93023681640625,0.23651123046875,67.4407958984375,52.7862548828125,5.5328369140625
-0.583740234375,-0.18603515625,0.85498046875,0.42724609375,2.08282470703125,0.40435791015625,67.4407958984375,52.7862548828125,5.5328369140625
-0.582275390625,-0.1865234375,0.851806640625,0.335693359375,2.1820068359375,0.29754638671875,67.4407958984375,52.1881103515625,5.2337646484375
-0.581787109375,-0.18310546875,0.849853515625,0.28228759765625,2.03704833984375,0.03814697265625,66.693115234375,51.739501953125,5.38330078125
-0.585693359375,-0.182373046875,0.854248046875,0.3814697265625,1.617431640625,0.14495849609375,68.1884765625,52.935791015625,5.682373046875
-0.58203125,-0.177978515625,0.849853515625,0.18310546875,1.57928466796875,1.93023681640625,68.1884765625,52.63671875,5.084228515625
-0.581787109375,-0.1767578125,0.849365234375,0.23651123046875,2.11334228515625,-0.26702880859375,66.693115234375,53.23486328125,4.78515625
-0.584716796875,-0.18115234375,0.847900390625,0.091552734375,2.28118896484375,-0.14495849609375,67.59033203125,53.23486328125,4.78515625
-0.584716796875,-0.18505859375,0.846435546875,-0.17547607421875,1.96075439453125,-0.25177001953125,67.4407958984375,51.8890380859375,5.5328369140625
-0.591552734375,-0.181640625,0.8505859375,-0.26702880859375,1.88446044921875,0.34332275390625,67.4407958984375,51.2908935546875,4.9346923828125
-0.5830078125,-0.1826171875,0.85205078125,0.19073486328125,1.91497802734375,1.83868408203125,67.4407958984375,53.6834716796875,4.0374755859375
-0.582275390625,-0.17578125,0.845458984375,-0.31280517578125,2.06756591796875,0.35858154296875,67.7398681640625,53.0853271484375,4.6356201171875
-0.5849609375,-0.175048828125,0.852294921875,-0.091552734375,3.76129150390625,1.79290771484375,66.9921875,52.63671875,5.682373046875
-0.5849609375,-0.175048828125,0.8486328125,-0.2288818359375,2.2125244140625,-0.11444091796875,67.4407958984375,53.3843994140625,5.5328369140625
-0.58056640625,-0.181884765625,0.853759765625,-0.06103515625,2.716064453125,-0.11444091796875,67.59033203125,52.63671875,5.682373046875
-0.5888671875,-0.183349609375,0.85107421875,0.091552734375,2.38037109375,-0.16021728515625,67.889404296875,52.03857421875,6.280517578125
-0.5859375,-0.180908203125,0.849853515625,-0.31280517578125,1.800537109375,-1.953125,66.5435791015625,52.7862548828125,5.5328369140625
-0.585693359375,-0.17578125,0.846923828125,-0.2899169921875,1.6021728515625,0.06103515625,68.1884765625,52.63671875,5.9814453125
-0.5869140625,-0.176025390625,0.850830078125,-0.48065185546875,2.01416015625,-0.5340576171875,68.1884765625,52.03857421875,5.38330078125
-0.580322265625,-0.178955078125,0.8505859375,-0.518798828125,2.13623046875,-0.274658203125,68.0389404296875,53.0853271484375,5.2337646484375
-0.584228515625,-0.172119140625,0.85205078125,-0.37384033203125,2.22015380859375,-0.38909912109375,67.1417236328125,51.8890380859375,4.9346923828125
-0.58203125,-0.1787109375,0.85546875,-0.31280517578125,2.40325927734375,-0.3509521484375,68.1884765625,52.03857421875,4.78515625
-0.583251953125,-0.18115234375,0.85205078125,-0.46539306640625,0.1678466796875,-0.02288818359375,67.889404296875,52.03857421875,3.887939453125
-0.583984375,-0.178466796875,0.851318359375,-0.70953369140625,1.86920166015625,0.16021728515625,66.9921875,53.23486328125,4.78515625
-0.583740234375,-0.173828125,0.8515625,-0.70953369140625,2.62451171875,-0.60272216796875,67.59033203125,52.03857421875,5.38330078125
-0.586181640625,-0.175048828125,0.85302734375,-0.67138671875,2.46429443359375,-0.66375732421875,67.889404296875,52.03857421875,5.38330078125
-0.585205078125,-0.1787109375,0.85009765625,-0.83160400390625,2.227783203125,-0.40435791015625,67.59033203125,53.533935546875,5.084228515625
-0.586181640625,-0.183349609375,0.832275390625,-0.67138671875,1.57928466796875,-0.274658203125,67.889404296875,52.935791015625,4.78515625
-0.585205078125,-0.183349609375,0.845703125,-0.89263916015625,1.312255859375,0.08392333984375,67.1417236328125,53.3843994140625,4.3365478515625
-0.5830078125,-0.182373046875,0.844970703125,-0.5950927734375,1.3580322265625,-1.8310546875,67.291259765625,52.63671875,5.682373046875
-0.580810546875,-0.177001953125,0.85009765625,-0.29754638671875,1.47247314453125,-0.14495849609375,66.8426513671875,52.7862548828125,6.1309814453125
-0.581298828125,-0.175048828125,0.85546875,-0.48065185546875,2.410888671875,-0.05340576171875,68.6370849609375,52.1881103515625,4.6356201171875
-0.585205078125,-0.180908203125,0.8583984375,-0.579833984375,2.90679931640625,-1.8310546875,67.4407958984375,52.7862548828125,4.9346923828125
-0.580322265625,-0.18603515625,0.85595703125,-0.42724609375,2.86102294921875,-0.20599365234375,67.889404296875,52.03857421875,4.78515625
-0.583251953125,-0.18310546875,0.845458984375,-0.03814697265625,2.8076171875,-0.26702880859375,68.1884765625,52.63671875,5.38330078125
-0.586669921875,-0.181396484375,0.85205078125,0.3204345703125,2.55584716796875,0.4119873046875,67.59033203125,53.23486328125,5.084228515625
-0.585205078125,-0.178955078125,0.848876953125,0.06866455078125,2.18963623046875,0.23651123046875,67.291259765625,52.63671875,5.084228515625
-0.58203125,-0.177490234375,0.85205078125,0.05340576171875,1.922607421875,-1.83868408203125,66.8426513671875,53.0853271484375,5.2337646484375
-0.585205078125,-0.18310546875,0.84765625,1.8463134765625,1.80816650390625,-1.79290771484375,66.8426513671875,53.3843994140625,5.2337646484375
-0.584716796875,-0.181396484375,0.85107421875,0.091552734375,1.617431640625,0.06866455078125,66.39404296875,52.63671875,5.38330078125
-0.584716796875,-0.1787109375,0.8486328125,-0.28228759765625,1.3275146484375,-0.08392333984375,67.1417236328125,51.5899658203125,4.9346923828125
-0.5830078125,-0.179443359375,0.850341796875,-0.69427490234375,2.20489501953125,-1.88446044921875,67.1417236328125,53.6834716796875,7.0281982421875
-0.5849609375,-0.1767578125,0.849853515625,-0.701904296875,2.899169921875,-0.06103515625,67.291259765625,53.23486328125,5.38330078125
-0.583251953125,-0.18115234375,0.853515625,-0.45013427734375,2.15911865234375,1.8768310546875,67.4407958984375,53.0853271484375,5.2337646484375
-0.58251953125,-0.18115234375,0.850830078125,-0.70953369140625,2.0904541015625,-1.861572265625,68.487548828125,51.739501953125,5.682373046875
-0.586181640625,-0.183349609375,0.852294921875,-0.4119873046875,1.74713134765625,-0.18310546875,67.1417236328125,52.4871826171875,4.6356201171875
-0.583740234375,-0.16552734375,0.856201171875,-0.5340576171875,2.0904541015625,0.06866455078125,67.889404296875,52.935791015625,6.57958984375
-0.582763671875,-0.17919921875,0.84716796875,-0.1678466796875,1.56402587890625,-0.25177001953125,65.9454345703125,52.7862548828125,5.2337646484375
-0.582763671875,-0.1787109375,0.852783203125,-0.9002685546875,1.28936767578125,-0.396728515625,67.1417236328125,52.7862548828125,4.9346923828125
-0.583740234375,-0.1796875,0.849365234375,-1.2664794921875,1.556396484375,-0.4119873046875,66.9921875,54.132080078125,5.682373046875
-0.5830078125,-0.179931640625,0.852783203125,-1.16729736328125,1.7852783203125,-0.274658203125,68.0389404296875,52.4871826171875,5.8319091796875
-0.589599609375,-0.1748046875,0.849365234375,-1.5716552734375,1.15966796875,-0.1678466796875,67.1417236328125,53.3843994140625,5.2337646484375
-0.5849609375,-0.172607421875,0.854248046875,-2.166748046875,0.335693359375,-0.457763671875,66.8426513671875,52.1881103515625,5.2337646484375
-0.585693359375,-0.181640625,0.850341796875,-0.00762939453125,1.48773193359375,-0.6561279296875,67.889404296875,52.63671875,4.18701171875
-0.593017578125,-0.173095703125,0.853759765625,-0.06103515625,2.18963623046875,-0.35858154296875,66.094970703125,53.533935546875,5.38330078125
-0.5849609375,-0.18896484375,0.854736328125,-1.54876708984375,2.2125244140625,-0.35858154296875,66.9921875,52.337646484375,4.78515625
-0.578857421875,-0.184326171875,0.847900390625,-1.434326171875,1.76239013671875,-0.091552734375,66.693115234375,53.8330078125,5.38330078125
-0.581787109375,-0.181884765625,0.84912109375,-1.1138916015625,1.739501953125,-0.0152587890625,67.291259765625,52.935791015625,4.486083984375
-0.57763671875,-0.178466796875,0.85302734375,-0.70953369140625,2.00653076171875,-0.3814697265625,67.889404296875,52.63671875,5.084228515625
-0.580810546875,-0.1845703125,0.8525390625,-0.93841552734375,2.44140625,-0.4730224609375,67.59033203125,52.935791015625,5.38330078125
-0.587890625,-0.2001953125,0.84521484375,-0.29754638671875,2.01416015625,-0.17547607421875,66.2445068359375,52.7862548828125,5.2337646484375
-0.5791015625,-0.187744140625,0.84912109375,-0.48828125,1.861572265625,-0.2899169921875,67.291259765625,53.533935546875,4.18701171875
-0.580078125,-0.18359375,0.8505859375,-0.3509521484375,1.9378662109375,-0.4119873046875,67.889404296875,53.23486328125,5.682373046875
-0.58203125,-0.181640625,0.85498046875,-0.335693359375,2.0599365234375,-0.4119873046875,66.8426513671875,52.4871826171875,4.9346923828125
-0.58056640625,-0.18310546875,0.846923828125,-0.31280517578125,2.08282470703125,-0.31280517578125,67.59033203125,52.63671875,3.289794921875
-0.580322265625,-0.185302734375,0.84912109375,-1.88446044921875,2.29644775390625,-0.43487548828125,68.6370849609375,52.7862548828125,5.8319091796875
-0.5849609375,-0.189453125,0.85009765625,0.26702880859375,2.09808349609375,-0.213623046875,67.291259765625,52.935791015625,4.486083984375
-0.581787109375,-0.181396484375,0.854248046875,0.12969970703125,2.18963623046875,-0.29754638671875,67.4407958984375,51.5899658203125,4.9346923828125
-0.583251953125,-0.18505859375,0.85546875,-0.1220703125,2.3193359375,-0.43487548828125,67.4407958984375,54.2816162109375,5.5328369140625
-0.580322265625,-0.172119140625,0.852294921875,-1.678466796875,2.4566650390625,-0.11444091796875,67.1417236328125,53.0853271484375,5.2337646484375
-0.58154296875,-0.186279296875,0.8603515625,0.02288818359375,2.87628173828125,-0.66375732421875,68.487548828125,52.63671875,5.084228515625
-0.579345703125,-0.18212890625,0.855712890625,0.1068115234375,2.55584716796875,-0.70953369140625,67.291259765625,52.935791015625,5.084228515625
-0.581298828125,-0.18408203125,0.848876953125,0.1220703125,3.0517578125,-0.43487548828125,68.9361572265625,52.1881103515625,4.3365478515625
-0.583984375,-0.18994140625,0.848388671875,0.396728515625,2.7923583984375,-0.54168701171875,67.1417236328125,52.7862548828125,4.3365478515625
-0.580810546875,-0.202392578125,0.8505859375,0.46539306640625,2.50244140625,-0.3204345703125,66.693115234375,52.337646484375,5.38330078125
-0.5810546875,-0.18212890625,0.84716796875,0.67138671875,2.44140625,-0.16021728515625,66.9921875,53.23486328125,4.18701171875
-0.585693359375,-0.1826171875,0.853271484375,0.23651123046875,2.60162353515625,-0.32806396484375,67.889404296875,51.739501953125,4.78515625
-0.58349609375,-0.17919921875,0.855712890625,0.0457763671875,2.51007080078125,-0.40435791015625,66.2445068359375,51.8890380859375,4.3365478515625
-0.583984375,-0.180419921875,0.847412109375,-0.2593994140625,2.349853515625,-0.4425048828125,67.1417236328125,52.7862548828125,4.9346923828125
-0.5859375,-0.172607421875,0.84521484375,-0.25177001953125,2.43377685546875,-0.4119873046875,68.1884765625,53.23486328125,4.486083984375
-0.58056640625,-0.181396484375,0.85107421875,-0.5950927734375,2.0751953125,-0.3662109375,67.1417236328125,51.8890380859375,5.8319091796875
-0.587158203125,-0.184814453125,0.849365234375,-0.72479248046875,0.29754638671875,-0.28228759765625,67.291259765625,52.63671875,5.38330078125
-0.58203125,-0.18212890625,0.8447265625,-0.55694580078125,2.4566650390625,-0.75531005859375,68.6370849609375,52.7862548828125,4.3365478515625
-0.583984375,-0.18603515625,0.8544921875,-0.48828125,2.349853515625,-0.48828125,67.59033203125,52.337646484375,5.682373046875
-0.5830078125,-0.173095703125,0.84912109375,-0.213623046875,2.227783203125,-0.45013427734375,68.3380126953125,52.1881103515625,5.2337646484375
-0.584716796875,-0.1845703125,0.854736328125,1.94549560546875,2.471923828125,-0.274658203125,67.4407958984375,52.7862548828125,4.9346923828125
-0.57958984375,-0.18505859375,0.8515625,0.4730224609375,2.46429443359375,0.00762939453125,67.4407958984375,51.2908935546875,5.8319091796875
-0.585205078125,-0.177978515625,0.850341796875,1.068115234375,2.3956298828125,1.73187255859375,68.3380126953125,52.1881103515625,5.8319091796875
-0.56298828125,-0.1796875,0.8515625,0.75531005859375,2.8839111328125,-0.06103515625,66.693115234375,51.739501953125,5.38330078125
-0.58642578125,-0.177490234375,0.85205078125,1.3580322265625,2.66265869140625,-0.1068115234375,67.291259765625,52.337646484375,5.38330078125
-0.5869140625,-0.178466796875,0.852294921875,1.12152099609375,2.349853515625,1.93023681640625,66.693115234375,51.4404296875,5.38330078125
-0.581787109375,-0.185302734375,0.849365234375,0.5035400390625,2.43377685546875,0.17547607421875,67.4407958984375,52.7862548828125,4.6356201171875
-0.5859375,-0.178466796875,0.850341796875,0.61798095703125,2.0751953125,-0.22125244140625,68.0389404296875,52.1881103515625,6.1309814453125
-0.58544921875,-0.181396484375,0.849609375,0.42724609375,1.97601318359375,0.0762939453125,67.4407958984375,50.6927490234375,5.2337646484375
-0.5849609375,-0.178466796875,0.849365234375,0.18310546875,1.86920166015625,0.152587890625,68.1884765625,52.03857421875,5.38330078125
-0.586669921875,-0.183837890625,0.854248046875,0.1373291015625,1.5869140625,0.28228759765625,67.7398681640625,52.7862548828125,5.2337646484375
-0.583740234375,-0.17919921875,0.85302734375,-0.274658203125,1.83868408203125,0.2593994140625,68.487548828125,52.63671875,5.084228515625
-0.58251953125,-0.181640625,0.8525390625,-0.7476806640625,2.12860107421875,0.3509521484375,68.6370849609375,51.5899658203125,5.2337646484375
-0.58740234375,-0.1787109375,0.851318359375,-1.007080078125,1.373291015625,0.48828125,68.487548828125,52.03857421875,5.9814453125
-0.582275390625,-0.17724609375,0.8515625,-1.03759765625,0.6866455078125,0.37384033203125,67.1417236328125,52.7862548828125,5.2337646484375
-0.5869140625,-0.1826171875,0.846923828125,-1.15966796875,0.396728515625,0.579833984375,68.0389404296875,53.0853271484375,4.6356201171875
-0.59375,-0.174072265625,0.847900390625,-1.3275146484375,1.0223388671875,-0.2288818359375,68.6370849609375,53.0853271484375,5.5328369140625
-0.59326171875,-0.184326171875,0.8486328125,-1.4495849609375,1.6632080078125,0.03814697265625,67.291259765625,52.63671875,3.887939453125
-0.584716796875,-0.202392578125,0.8505859375,-0.7171630859375,2.25067138671875,0.152587890625,67.1417236328125,50.9918212890625,5.5328369140625
-0.586669921875,-0.177490234375,0.85595703125,-0.12969970703125,2.1209716796875,-0.02288818359375,67.291259765625,52.337646484375,5.9814453125
-0.583251953125,-0.181396484375,0.851318359375,-0.2288818359375,1.8157958984375,-0.2899169921875,67.59033203125,52.337646484375,3.887939453125
-0.58349609375,-0.178466796875,0.848388671875,-0.2899169921875,2.37274169921875,-0.12969970703125,68.6370849609375,53.3843994140625,5.5328369140625
-0.58544921875,-0.17919921875,0.845458984375,1.74713134765625,2.0904541015625,-0.34332275390625,67.7398681640625,53.6834716796875,5.2337646484375
-0.58251953125,-0.181884765625,0.85302734375,-0.6103515625,1.3885498046875,-1.86920166015625,68.6370849609375,51.8890380859375,5.5328369140625
-0.585693359375,-0.182373046875,0.857666015625,-0.70953369140625,1.85394287109375,0.06103515625,68.1884765625,51.739501953125,4.78515625
-0.578369140625,-0.1826171875,0.8515625,-0.60272216796875,2.63214111328125,-0.19073486328125,67.4407958984375,52.7862548828125,5.2337646484375
-0.5869140625,-0.18310546875,0.844970703125,-0.640869140625,2.57110595703125,-0.03814697265625,68.6370849609375,51.5899658203125,3.7384033203125
-0.5830078125,-0.18359375,0.850830078125,-0.30517578125,1.83868408203125,-1.7547607421875,67.4407958984375,51.8890380859375,5.5328369140625
-0.58251953125,-0.17236328125,0.851806640625,-0.12969970703125,1.9683837890625,-0.23651123046875,66.9921875,52.935791015625,4.78515625
-0.586669921875,-0.1806640625,0.849365234375,-1.65557861328125,2.2430419921875,-0.31280517578125,67.889404296875,52.337646484375,5.084228515625
-0.5830078125,-0.18212890625,0.85205078125,0.37384033203125,0.1373291015625,-0.31280517578125,66.9921875,52.935791015625,5.38330078125
-0.5810546875,-0.181396484375,0.851318359375,0.55694580078125,1.45721435546875,-0.244140625,69.085693359375,52.63671875,5.682373046875
-0.58447265625,-0.183349609375,0.85107421875,0.2288818359375,1.74713134765625,-0.09918212890625,67.889404296875,52.935791015625,5.084228515625
-0.579833984375,-0.179443359375,0.851806640625,0.05340576171875,1.65557861328125,1.77764892578125,67.7398681640625,52.7862548828125,5.2337646484375
-0.5859375,-0.17578125,0.84423828125,-0.22125244140625,2.18963623046875,-0.45013427734375,67.7398681640625,52.4871826171875,4.9346923828125
-0.58203125,-0.181640625,0.8505859375,-0.18310546875,2.716064453125,-0.38909912109375,67.889404296875,52.935791015625,5.9814453125
-0.582763671875,-0.1806640625,0.85546875,-0.23651123046875,2.69317626953125,-0.28228759765625,67.889404296875,53.23486328125,4.78515625
-0.581787109375,-0.184326171875,0.850341796875,-0.37384033203125,2.25067138671875,-0.2593994140625,68.1884765625,52.63671875,4.78515625
-0.58349609375,-0.18115234375,0.848876953125,0.0,2.47955322265625,-0.0762939453125,68.0389404296875,52.7862548828125,5.8319091796875
-0.580810546875,-0.1796875,0.850341796875,0.0762939453125,2.1820068359375,-0.335693359375,68.0389404296875,53.0853271484375,4.3365478515625
-0.58203125,-0.18408203125,0.8466796875,-0.30517578125,1.88446044921875,0.28228759765625,68.1884765625,52.63671875,4.486083984375
-0.5830078125,-0.1787109375,0.844482421875,-0.1220703125,1.80816650390625,1.6937255859375,67.889404296875,52.03857421875,5.9814453125
-0.58154296875,-0.177490234375,0.8505859375,-0.6103515625,2.13623046875,-0.7171630859375,66.8426513671875,52.7862548828125,4.9346923828125
-0.5849609375,-0.172119140625,0.852294921875,-0.80108642578125,1.71661376953125,-0.3814697265625,67.291259765625,52.337646484375,4.78515625
-0.582275390625,-0.172607421875,0.857177734375,-1.15966796875,1.46484375,-0.762939453125,67.59033203125,53.23486328125,4.486083984375
-0.58544921875,-0.185546875,0.8515625,-1.12152099609375,2.1209716796875,-0.9918212890625,67.7398681640625,53.0853271484375,4.6356201171875
-0.584228515625,-0.172119140625,0.8515625,-1.373291015625,1.678466796875,-0.55694580078125,67.291259765625,53.23486328125,4.18701171875
-0.57861328125,-0.18310546875,0.857666015625,-1.79290771484375,1.0528564453125,-0.0457763671875,68.0389404296875,51.8890380859375,4.9346923828125
-0.578857421875,-0.19189453125,0.85009765625,-1.03759765625,1.30462646484375,0.16021728515625,68.6370849609375,53.3843994140625,4.3365478515625
-0.58154296875,-0.18505859375,0.853759765625,-0.762939453125,1.62506103515625,1.8463134765625,69.384765625,52.03857421875,5.38330078125
-0.58349609375,-0.180908203125,0.8525390625,-1.52587890625,1.51824951171875,-0.0457763671875,67.291259765625,52.935791015625,5.682373046875
-0.578857421875,-0.186767578125,0.856201171875,-1.0223388671875,1.495361328125,-0.1983642578125,67.291259765625,52.03857421875,4.78515625
-0.580810546875,-0.185302734375,0.8515625,-0.7781982421875,1.7547607421875,0.3204345703125,68.0389404296875,51.8890380859375,4.6356201171875
-0.584228515625,-0.18017578125,0.8515625,-0.51116943359375,1.67083740234375,0.20599365234375,67.889404296875,52.935791015625,4.78515625
-0.583251953125,-0.17333984375,0.847900390625,-0.83160400390625,1.4801025390625,0.457763671875,66.8426513671875,51.8890380859375,6.1309814453125
-0.581787109375,-0.171630859375,0.8564453125,-0.89263916015625,1.3427734375,0.28228759765625,66.8426513671875,51.8890380859375,6.1309814453125
-0.581787109375,-0.176513671875,0.85400390625,-1.06048583984375,0.946044921875,0.19073486328125,67.291259765625,52.337646484375,4.18701171875
-0.58203125,-0.18212890625,0.84521484375,-0.77056884765625,0.67138671875,0.396728515625,68.0389404296875,51.8890380859375,4.9346923828125
-0.581298828125,-0.18212890625,0.847900390625,-0.69427490234375,0.52642822265625,0.3509521484375,67.4407958984375,53.0853271484375,5.5328369140625
-0.57958984375,-0.1796875,0.8564453125,-0.5035400390625,0.48065185546875,-0.06866455078125,67.4407958984375,53.0853271484375,5.5328369140625
-0.5791015625,-0.180908203125,0.84912109375,-0.4730224609375,0.55694580078125,0.0457763671875,67.4407958984375,53.0853271484375,5.5328369140625
-0.57958984375,-0.181884765625,0.8515625,-0.69427490234375,0.29754638671875,0.2899169921875,66.9921875,52.337646484375,5.084228515625
-0.58251953125,-0.178466796875,0.854248046875,-0.90789794921875,0.43487548828125,0.152587890625,66.693115234375,53.8330078125,4.486083984375
-0.5791015625,-0.185791015625,0.8544921875,-0.60272216796875,-0.030517578125,0.28228759765625,68.0389404296875,53.6834716796875,4.6356201171875
-0.572998046875,-0.180419921875,0.853271484375,-0.57220458984375,0.52642822265625,-0.1220703125,68.0389404296875,53.6834716796875,4.6356201171875
-0.57763671875,-0.17724609375,0.8505859375,-0.7781982421875,0.31280517578125,-0.762939453125,68.0389404296875,53.6834716796875,4.6356201171875
-0.578125,-0.1650390625,0.864501953125,-0.9613037109375,0.09918212890625,-0.66375732421875,68.0389404296875,53.6834716796875,4.6356201171875
-0.57666015625,-0.169189453125,0.8583984375,-1.068115234375,0.48065185546875,-1.2054443359375,68.1884765625,53.23486328125,4.18701171875
-0.58056640625,-0.185546875,0.843017578125,-1.19781494140625,0.35858154296875,-1.13677978515625,67.889404296875,52.63671875,4.18701171875
-0.59375,-0.191162109375,0.849609375,-0.70953369140625,-0.08392333984375,-0.87738037109375,67.4407958984375,54.2816162109375,5.5328369140625
-0.59326171875,-0.2001953125,0.853759765625,-0.37384033203125,0.25177001953125,-0.5645751953125,67.4407958984375,54.2816162109375,5.5328369140625
-0.576416015625,-0.16259765625,0.8515625,-0.0457763671875,-0.885009765625,-0.42724609375,67.4407958984375,54.2816162109375,5.5328369140625
-0.574462890625,-0.16064453125,0.856689453125,-0.78582763671875,-1.15966796875,-0.96893310546875,67.7398681640625,52.7862548828125,3.7384033203125
-0.57177734375,-0.177490234375,0.85986328125,-0.8087158203125,-1.434326171875,-0.9002685546875,66.8426513671875,52.7862548828125,5.2337646484375
-0.566162109375,-0.198974609375,0.85986328125,-1.22833251953125,0.152587890625,-1.28173828125,68.1884765625,54.132080078125,4.78515625
-0.574462890625,-0.201171875,0.85546875,-1.57928466796875,1.6326904296875,-1.220703125,68.1884765625,54.132080078125,4.78515625
-0.57470703125,-0.195556640625,0.850341796875,-1.1138916015625,2.2735595703125,-1.27410888671875,68.1884765625,54.132080078125,4.78515625
-0.59375,-0.19384765625,0.8583984375,-0.732421875,3.36456298828125,-1.53350830078125,68.0389404296875,52.4871826171875,5.5328369140625
-0.58349609375,-0.19677734375,0.855712890625,-0.74005126953125,3.8909912109375,-0.8392333984375,67.1417236328125,53.3843994140625,4.9346923828125
-0.577392578125,-0.197021484375,0.853515625,-0.23651123046875,5.79071044921875,-0.9918212890625,67.889404296875,54.132080078125,3.5888671875
-0.580322265625,-0.19970703125,0.851806640625,0.14495849609375,2.838134765625,-0.5645751953125,67.889404296875,54.132080078125,3.5888671875
-0.593017578125,-0.214599609375,0.8486328125,0.66375732421875,3.8299560546875,-0.25177001953125,67.889404296875,54.132080078125,3.5888671875
-0.574951171875,-0.2109375,0.856689453125,0.81634521484375,0.03814697265625,0.34332275390625,67.889404296875,54.132080078125,3.5888671875
-0.5712890625,-0.195556640625,0.85205078125,1.251220703125,1.3427734375,0.701904296875,66.9921875,51.739501953125,5.38330078125
-0.571533203125,-0.1943359375,0.874267578125,1.76239013671875,1.617431640625,0.5340576171875,67.4407958984375,53.9825439453125,4.6356201171875
-0.572265625,-0.203369140625,0.845458984375,2.349853515625,3.3416748046875,0.61798095703125,67.4407958984375,53.9825439453125,4.6356201171875
-0.57275390625,-0.201904296875,0.8544921875,2.89154052734375,4.28009033203125,0.96893310546875,67.4407958984375,53.9825439453125,4.6356201171875
-0.572265625,-0.188720703125,0.846923828125,2.02178955078125,4.7760009765625,0.86212158203125,67.4407958984375,53.9825439453125,4.6356201171875
-0.570556640625,-0.190673828125,0.859130859375,2.00653076171875,3.96728515625,0.14495849609375,67.59033203125,53.23486328125,4.486083984375
-0.57080078125,-0.206787109375,0.86572265625,4.38690185546875,7.8125,0.31280517578125,68.1884765625,53.533935546875,4.18701171875
-0.568359375,-0.198974609375,0.88720703125,3.13568115234375,7.7667236328125,0.46539306640625,68.1884765625,53.23486328125,5.38330078125
-0.578125,-0.1865234375,0.8701171875,3.22723388671875,8.82720947265625,0.18310546875,68.1884765625,53.23486328125,5.38330078125
-0.577392578125,-0.176513671875,0.887939453125,2.7313232421875,8.30841064453125,0.0457763671875,68.1884765625,53.23486328125,5.38330078125
-0.5654296875,-0.173583984375,0.89404296875,0.28228759765625,12.85552978515625,-0.41961669921875,67.889404296875,52.63671875,5.38330078125
-0.5751953125,-0.178955078125,0.893310546875,-3.143310546875,15.5792236328125,-0.32806396484375,67.889404296875,51.739501953125,4.486083984375
-0.57470703125,-0.158935546875,0.8994140625,-4.05120849609375,13.11492919921875,1.861572265625,66.5435791015625,53.0853271484375,3.4393310546875
-0.572265625,-0.1787109375,0.917724609375,-7.57598876953125,18.57757568359375,0.28228759765625,66.5435791015625,53.0853271484375,3.4393310546875
-0.56201171875,-0.2099609375,0.925048828125,-6.744384765625,26.4129638671875,2.35748291015625,66.5435791015625,53.0853271484375,3.4393310546875
-0.55908203125,-0.2412109375,0.970703125,-9.68170166015625,34.1949462890625,7.33184814453125,68.1884765625,53.533935546875,6.57958984375
-0.54296875,-0.3173828125,1.0556640625,-4.95147705078125,48.5992431640625,15.15960693359375,67.4407958984375,52.7862548828125,6.1309814453125
-0.589111328125,-0.403564453125,1.103271484375,-1.68609619140625,62.1185302734375,26.1688232421875,66.9921875,52.63671875,5.38330078125
-0.6845703125,-0.37451171875,1.2822265625,10.44464111328125,77.911376953125,44.8150634765625,66.9921875,52.63671875,5.38330078125
-0.763916015625,-0.5673828125,1.318603515625,23.71978759765625,95.733642578125,52.97088623046875,66.9921875,52.63671875,5.38330078125
-0.7880859375,-0.57861328125,1.352294921875,25.87890625,107.60498046875,65.57464599609375,67.7398681640625,53.6834716796875,4.6356201171875
-0.685791015625,-0.828369140625,1.433837890625,31.56280517578125,143.59283447265625,85.33477783203125,66.8426513671875,53.3843994140625,3.7384033203125
-0.906982421875,-0.8271484375,1.529541015625,41.6412353515625,168.5638427734375,113.77716064453125,66.8426513671875,55.1788330078125,3.4393310546875
-1.191162109375,-0.730224609375,1.647705078125,49.81231689453125,187.19482421875,155.89141845703125,66.8426513671875,55.1788330078125,3.4393310546875
-1.375732421875,-0.57177734375,1.783447265625,44.67010498046875,187.58392333984375,171.6766357421875,66.8426513671875,55.1788330078125,3.4393310546875
2.0,-0.180419921875,1.89404296875,14.3280029296875,177.2918701171875,147.92633056640625,66.8426513671875,55.1788330078125,3.4393310546875
2.0,0.00146484375,1.8798828125,-34.76715087890625,171.295166015625,90.484619140625,65.0482177734375,55.1788330078125,0.1495361328125
2.0,-0.7373046875,1.71875,-21.881103515625,120.85723876953125,74.9969482421875,64.4500732421875,56.6741943359375,-1.3458251953125
-1.747802734375,-0.682373046875,1.55859375,6.317138671875,99.700927734375,94.879150390625,64.4500732421875,57.8704833984375,0.1495361328125
-1.807861328125,0.03759765625,1.89599609375,-19.4244384765625,113.77716064453125,58.67767333984375,64.4500732421875,57.8704833984375,0.1495361328125
-1.909423828125,-0.515625,1.60546875,-4.8065185546875,84.72442626953125,68.90106201171875,64.4500732421875,57.8704833984375,0.1495361328125
-1.372314453125,-0.621826171875,1.471923828125,10.040283203125,68.90106201171875,84.442138671875,63.8519287109375,57.2723388671875,-0.4486083984375
-1.313720703125,-0.26416015625,1.535400390625,5.51605224609375,80.52825927734375,75.00457763671875,63.5528564453125,57.2723388671875,-0.7476806640625
-1.640380859375,-0.052978515625,1.49658203125,5.59234619140625,89.17999267578125,65.032958984375,65.0482177734375,57.5714111328125,-0.4486083984375
-1.478271484375,-0.17919921875,1.46630859375,-3.30352783203125,89.39361572265625,70.04547119140625,65.0482177734375,57.5714111328125,-0.4486083984375
-1.426513671875,-0.26025390625,1.386474609375,-6.7291259765625,85.56365966796875,75.78277587890625,65.0482177734375,57.5714111328125,-0.4486083984375
-1.37255859375,-0.143310546875,1.313232421875,-13.2904052734375,81.8023681640625,76.9805908203125,61.7584228515625,57.2723388671875,-2.2430419921875
-1.306884765625,-0.06005859375,1.249267578125,-19.29473876953125,77.62908935546875,75.9124755859375,63.104248046875,56.82373046875,-2.093505859375
-1.304931640625,-0.045654296875,1.2138671875,-15.19012451171875,79.00238037109375,66.88690185546875,61.4593505859375,57.5714111328125,-2.8411865234375
-1.247802734375,-0.05908203125,1.173095703125,-17.4407958984375,61.07330322265625,62.164306640625,61.4593505859375,57.5714111328125,-2.8411865234375
-1.248779296875,-0.03857421875,1.02587890625,-8.087158203125,61.40899658203125,46.02813720703125,61.4593505859375,57.5714111328125,-2.8411865234375
-1.201416015625,-0.059326171875,1.043701171875,5.2490234375,65.826416015625,32.562255859375,61.907958984375,57.720947265625,-1.495361328125
-1.189453125,-0.043701171875,0.982177734375,5.8135986328125,50.10223388671875,20.45440673828125,61.1602783203125,58.1695556640625,-1.6448974609375
-1.127685546875,0.046142578125,0.989990234375,12.6190185546875,41.6717529296875,6.79779052734375,61.7584228515625,57.8704833984375,-2.8411865234375
-1.056396484375,0.115966796875,0.94970703125,11.65008544921875,34.17205810546875,-4.94384765625,61.7584228515625,57.8704833984375,-2.8411865234375
-1.034423828125,0.08154296875,0.888671875,12.14599609375,22.308349609375,-9.8724365234375,61.7584228515625,57.8704833984375,-2.8411865234375
-0.931396484375,0.03857421875,0.763916015625,23.29254150390625,28.01513671875,-17.608642578125,61.7584228515625,57.8704833984375,-2.8411865234375
-0.886474609375,0.046142578125,0.647216796875,21.5301513671875,13.97705078125,-22.2015380859375,62.20703125,58.319091796875,-1.495361328125
-0.760986328125,0.0712890625,0.56396484375,22.4456787109375,-3.692626953125,-28.63311767578125,60.8612060546875,56.9732666015625,-0.4486083984375
-0.6435546875,0.120361328125,0.44970703125,25.1922607421875,-11.89422607421875,-37.0330810546875,61.907958984375,58.319091796875,-0.897216796875
-0.54931640625,0.16064453125,0.32275390625,22.11761474609375,-17.791748046875,-43.19000244140625,61.907958984375,58.319091796875,-0.897216796875
-0.4765625,0.1728515625,0.205322265625,16.18194580078125,-31.86798095703125,-47.98126220703125,61.907958984375,58.319091796875,-0.897216796875
-0.373046875,0.12646484375,0.12353515625,11.95526123046875,-43.15948486328125,-47.821044921875,62.3565673828125,56.0760498046875,-1.6448974609375
-0.30712890625,0.105224609375,0.077392578125,8.2244873046875,-55.4046630859375,-49.14093017578125,62.9547119140625,56.3751220703125,-2.2430419921875
-0.271728515625,0.093505859375,-0.012451171875,9.3536376953125,-64.94140625,-50.84228515625,62.9547119140625,57.5714111328125,0.1495361328125
-0.224609375,0.08984375,-0.10693359375,7.904052734375,-66.74957275390625,-56.58721923828125,62.9547119140625,57.5714111328125,0.1495361328125
-0.10302734375,0.083740234375,-0.151123046875,10.498046875,-67.98553466796875,-60.150146484375,62.9547119140625,57.5714111328125,0.1495361328125
-0.018798828125,0.12646484375,-0.124267578125,11.474609375,-79.4525146484375,-61.3861083984375,63.5528564453125,56.6741943359375,1.3458251953125
-0.00146484375,0.110595703125,-0.178955078125,0.1983642578125,-68.023681640625,-70.281982421875,63.5528564453125,56.0760498046875,2.2430419921875
0.02099609375,0.1796875,-0.277099609375,-0.06866455078125,-65.277099609375,-74.59259033203125,63.5528564453125,56.9732666015625,1.6448974609375
0.07861328125,0.25,-0.38818359375,-7.476806640625,-51.13983154296875,-69.88525390625,64.7491455078125,56.0760498046875,2.5421142578125
0.12548828125,0.319580078125,-0.482666015625,-4.0435791015625,-39.4134521484375,-56.54144287109375,65.9454345703125,54.8797607421875,5.2337646484375
0.15478515625,0.316162109375,-0.5478515625,-9.70458984375,-24.3072509765625,-40.33660888671875,66.094970703125,55.328369140625,5.084228515625
0.1962890625,0.294677734375,-0.6240234375,-8.88824462890625,-4.1046142578125,-20.56121826171875,64.7491455078125,55.1788330078125,3.4393310546875
0.26904296875,0.3232421875,-0.60400390625,-2.96783447265625,20.30181884765625,-8.84246826171875,66.2445068359375,54.2816162109375,4.6356201171875
0.29833984375,0.337646484375,-0.6005859375,-1.190185546875,59.783935546875,2.14385986328125,65.496826171875,54.132080078125,2.691650390625
0.1953125,0.3369140625,-0.45556640625,-8.18634033203125,99.69329833984375,16.21246337890625,66.094970703125,54.43115234375,4.18701171875
0.064697265625,0.2255859375,-0.37548828125,-20.4010009765625,124.65667724609375,30.58624267578125,64.599609375,54.730224609375,1.495361328125
-0.0859375,0.18505859375,-0.237060546875,-37.87994384765625,116.912841796875,42.9534912109375,64.7491455078125,54.2816162109375,-0.4486083984375
-0.066162109375,0.1943359375,-0.146728515625,-45.55511474609375,115.05126953125,39.2608642578125,64.4500732421875,55.4779052734375,-2.5421142578125
-0.043701171875,0.29150390625,-0.068115234375,-49.46136474609375,104.0802001953125,35.1104736328125,64.4500732421875,55.4779052734375,-3.7384033203125
-0.1357421875,0.1875,0.0380859375,-48.583984375,88.958740234375,23.65875244140625,63.702392578125,53.23486328125,-4.18701171875
-0.38134765625,-0.008544921875,0.246337890625,10.38360595703125,74.310302734375,-4.5928955078125,65.0482177734375,53.3843994140625,-5.8319091796875
-0.614990234375,-0.108154296875,0.416259765625,46.89788818359375,47.4090576171875,-52.98614501953125,64.300537109375,52.935791015625,-7.177734375
-0.758056640625,0.314208984375,0.599609375,54.962158203125,32.55462646484375,-104.49981689453125,64.898681640625,51.4404296875,-6.280517578125
-1.14501953125,0.405517578125,0.51611328125,55.42755126953125,7.4920654296875,-61.47003173828125,64.599609375,50.84228515625,-5.9814453125
-1.409912109375,0.31005859375,0.64794921875,25.91705322265625,-47.49298095703125,13.75579833984375,65.0482177734375,49.1973876953125,-5.5328369140625
-1.662109375,-0.015869140625,0.879150390625,-1.007080078125,-98.33526611328125,47.8668212890625,65.6463623046875,49.4964599609375,-4.9346923828125
-1.755859375,-0.422607421875,1.03515625,-7.4462890625,-157.0281982421875,40.09246826171875,65.19775390625,51.739501953125,-3.887939453125
-1.66015625,-0.697021484375,1.215087890625,30.63201904296875,-128.9825439453125,-19.47021484375,66.2445068359375,53.6834716796875,-4.3365478515625
-1.72607421875,-0.74658203125,1.18310546875,65.37628173828125,-128.36456298828125,-62.87384033203125,66.39404296875,52.935791015625,-3.887939453125
-1.61669921875,-0.4130859375,1.306884765625,47.35565185546875,-131.5765380859375,-68.1610107421875,66.39404296875,52.337646484375,-1.495361328125
-1.478515625,-0.3603515625,1.203125,33.6151123046875,-140.06805419921875,-41.86248779296875,67.1417236328125,53.0853271484375,0.1495361328125
2.0,-0.04638671875,1.130859375,3.18145751953125,-141.12091064453125,-82.45086669921875,67.7398681640625,51.5899658203125,2.5421142578125
-1.548828125,-0.832763671875,0.942138671875,12.07733154296875,-128.30352783203125,-22.60589599609375,68.1884765625,52.03857421875,1.79443359375
-0.921142578125,-0.216064453125,1.034912109375,-57.0220947265625,-102.08892822265625,-17.6849365234375,68.1884765625,52.03857421875,2.392578125
-0.669921875,-0.335693359375,0.873291015625,-65.399169921875,-94.146728515625,-10.04791259765625,68.1884765625,52.03857421875,2.392578125
-0.525146484375,-0.344482421875,1.12890625,-23.468017578125,-98.3428955078125,-31.463623046875,68.3380126953125,52.4871826171875,1.9439697265625
-0.318359375,-0.095458984375,1.085693359375,-50.97198486328125,-80.7342529296875,-38.3148193359375,68.487548828125,52.337646484375,1.495361328125
-0.596923828125,-0.275634765625,0.88037109375,-39.95513916015625,-62.255859375,-38.970947265625,68.3380126953125,50.9918212890625,0.1495361328125
-0.806396484375,-0.29443359375,0.824462890625,-6.9427490234375,-27.53448486328125,-6.88934326171875,69.5343017578125,51.2908935546875,1.6448974609375
-0.5859375,-0.46630859375,1.079833984375,33.14208984375,-14.44244384765625,-4.9896240234375,68.9361572265625,51.2908935546875,3.1402587890625
-0.495361328125,-0.240966796875,1.09130859375,13.9923095703125,8.30841064453125,4.3487548828125,68.487548828125,49.64599609375,2.99072265625
-0.55859375,-0.146240234375,0.829833984375,25.10833740234375,3.96728515625,1.13677978515625,68.9361572265625,49.1973876953125,3.1402587890625
-0.555419921875,-0.178466796875,0.844970703125,16.59393310546875,14.09912109375,1.6632080078125,67.7398681640625,49.7955322265625,2.8411865234375
-0.625244140625,-0.26513671875,0.81298828125,16.357421875,10.9710693359375,5.06591796875,68.487548828125,50.84228515625,3.887939453125
-0.524169921875,-0.20361328125,0.670166015625,3.85284423828125,-21.42333984375,7.85064697265625,68.1884765625,50.244140625,3.887939453125
-0.526611328125,-0.228759765625,0.782470703125,14.10675048828125,-7.1563720703125,8.8043212890625,69.085693359375,51.739501953125,3.5888671875
-0.55859375,-0.182861328125,0.8779296875,17.486572265625,17.0440673828125,5.31768798828125,68.0389404296875,50.6927490234375,3.7384033203125
-0.57177734375,-0.193115234375,0.85009765625,26.77154541015625,-8.1329345703125,5.7373046875,68.0389404296875,50.3936767578125,3.4393310546875
-0.53076171875,-0.098876953125,0.885498046875,9.6893310546875,-8.5906982421875,1.3427734375,68.3380126953125,52.1881103515625,4.6356201171875
-0.568603515625,-0.18603515625,0.863525390625,-5.8441162109375,-3.27301025390625,1.800537109375,68.0389404296875,50.9918212890625,4.9346923828125
-0.56103515625,-0.130126953125,0.88134765625,-5.34820556640625,7.22503662109375,-1.36566162109375,68.487548828125,52.03857421875,4.18701171875
-0.57861328125,-0.2138671875,0.851318359375,-6.53076171875,9.05609130859375,-0.75531005859375,67.889404296875,52.03857421875,4.78515625
-0.580078125,-0.1767578125,0.844970703125,-5.126953125,-1.74713134765625,0.38909912109375,67.889404296875,52.03857421875,4.78515625
-0.59375,-0.16064453125,0.861083984375,-8.85009765625,-5.18798828125,-0.18310546875,68.3380126953125,51.2908935546875,4.0374755859375
-0.5517578125,-0.12841796875,0.867431640625,-10.44464111328125,-0.946044921875,-0.67138671875,68.487548828125,50.84228515625,4.78515625
-0.5810546875,-0.12109375,0.87646484375,-16.60919189453125,-13.24462890625,1.708984375,68.3380126953125,51.8890380859375,3.4393310546875
-0.55712890625,-0.124267578125,0.828857421875,-21.1639404296875,-14.44244384765625,-2.15911865234375,68.1884765625,51.141357421875,3.5888671875
-0.5537109375,-0.156982421875,0.869384765625,-27.4810791015625,-15.533447265625,-3.4332275390625,68.1884765625,51.141357421875,3.5888671875
-0.536865234375,-0.20556640625,0.8330078125,-27.09197998046875,-10.94818115234375,-6.744384765625,69.085693359375,52.63671875,2.691650390625
-0.51611328125,-0.160888671875,0.913330078125,-30.242919921875,-3.19671630859375,-7.97271728515625,66.9921875,52.03857421875,2.392578125
-0.523193359375,-0.133544921875,0.88623046875,-35.7513427734375,2.11334228515625,-11.86370849609375,68.0389404296875,51.2908935546875,1.9439697265625
-0.536865234375,-0.231201171875,0.869873046875,-36.59820556640625,8.636474609375,-14.70947265625,68.0389404296875,50.6927490234375,2.8411865234375
-0.55810546875,-0.303955078125,0.8671875,-35.888671875,14.70947265625,-11.8865966796875,68.3380126953125,50.3936767578125,0.7476806640625
-0.56298828125,-0.27978515625,0.817138671875,-34.82818603515625,15.1214599609375,-14.83917236328125,69.085693359375,50.244140625,1.495361328125
-0.56005859375,-0.310791015625,0.8583984375,-34.55352783203125,17.425537109375,-15.12908935546875,68.78662109375,51.739501953125,2.093505859375
-0.583740234375,-0.3193359375,0.836669921875,-32.02056884765625,13.8092041015625,-13.092041015625,67.59033203125,50.543212890625,0.299072265625
-0.571044921875,-0.307861328125,0.8056640625,-25.48980712890625,15.4876708984375,-11.4898681640625,68.6370849609375,50.3936767578125,0.4486083984375
-0.56884765625,-0.257080078125,0.8271484375,-22.27783203125,12.13836669921875,-10.99395751953125,68.487548828125,49.945068359375,1.1962890625
-0.58154296875,-0.24462890625,0.8271484375,-19.3634033203125,9.16290283203125,-12.22991943359375,69.085693359375,49.346923828125,0.299072265625
-0.558837890625,-0.3095703125,0.819580078125,-10.87188720703125,7.659912109375,-11.08551025390625,68.78662109375,49.346923828125,0.299072265625
-0.565185546875,-0.28759765625,0.834228515625,-4.76837158203125,4.364013671875,-11.00921630859375,69.085693359375,49.346923828125,0.897216796875
-0.5947265625,-0.28759765625,0.838134765625,-8.52203369140625,2.9144287109375,-10.13946533203125,68.3380126953125,49.1973876953125,1.0467529296875
-0.577880859375,-0.28466796875,0.829833984375,-8.20159912109375,1.03759765625,-9.22393798828125,68.3380126953125,50.0946044921875,1.0467529296875
-0.56494140625,-0.259521484375,0.848388671875,-9.71221923828125,2.62451171875,-9.2010498046875,69.384765625,48.44970703125,0.897216796875
-0.553955078125,-0.30078125,0.843505859375,-9.21630859375,3.44085693359375,-5.9051513671875,68.1884765625,48.44970703125,0.897216796875
-0.5634765625,-0.325439453125,0.81201171875,-5.18035888671875,2.67791748046875,-5.43975830078125,69.5343017578125,48.0010986328125,2.2430419921875
-0.540283203125,-0.3017578125,0.810791015625,-1.678466796875,1.9989013671875,-3.07464599609375,69.8333740234375,48.8983154296875,1.3458251953125
-0.55224609375,-0.3056640625,0.818115234375,4.03594970703125,0.732421875,-1.85394287109375,68.487548828125,47.8515625,1.495361328125
-0.5654296875,-0.302490234375,0.8173828125,4.913330078125,-0.1068115234375,-0.274658203125,68.9361572265625,48.3001708984375,0.1495361328125
-0.561279296875,-0.34228515625,0.815673828125,10.1776123046875,1.80816650390625,0.7171630859375,69.085693359375,48.748779296875,1.1962890625
-0.562255859375,-0.32568359375,0.8427734375,10.955810546875,1.2359619140625,2.22015380859375,69.2352294921875,49.1973876953125,-1.3458251953125
-0.536865234375,-0.365478515625,0.802001953125,12.94708251953125,1.24359130859375,2.32696533203125,68.1884765625,49.0478515625,0.897216796875
-0.54248046875,-0.3037109375,0.8388671875,17.333984375,0.16021728515625,4.09698486328125,69.085693359375,49.64599609375,0.0
-0.56884765625,-0.2216796875,0.855712890625,17.5628662109375,1.2054443359375,2.3651123046875,68.487548828125,49.0478515625,0.59814453125
-0.57373046875,-0.30810546875,0.850341796875,13.89312744140625,5.67626953125,1.129150390625,68.3380126953125,48.5992431640625,1.0467529296875
-0.5810546875,-0.26904296875,0.8525390625,8.82720947265625,5.95855712890625,0.8697509765625,68.6370849609375,48.3001708984375,1.6448974609375
-0.584716796875,-0.31298828125,0.8046875,10.894775390625,3.0975341796875,2.6397705078125,68.9361572265625,49.1973876953125,1.0467529296875
-0.55322265625,-0.330078125,0.802978515625,13.5040283203125,9.45281982421875,4.81414794921875,68.78662109375,48.748779296875,2.093505859375
-0.574951171875,-0.275634765625,0.8359375,16.60919189453125,0.030517578125,6.927490234375,68.9361572265625,49.1973876953125,1.3458251953125
-0.54443359375,-0.27001953125,0.85693359375,20.43914794921875,5.4473876953125,9.5062255859375,69.2352294921875,49.4964599609375,0.7476806640625
-0.556640625,-0.244384765625,0.859619140625,21.881103515625,7.8125,6.41632080078125,69.5343017578125,49.4964599609375,2.2430419921875
-0.562744140625,-0.27978515625,0.8447265625,18.2342529296875,10.74981689453125,6.134033203125,68.3380126953125,49.4964599609375,1.3458251953125
-0.578125,-0.2470703125,0.8564453125,13.78631591796875,10.53619384765625,5.4931640625,68.9361572265625,50.0946044921875,2.8411865234375
-0.560791015625,-0.23046875,0.875,7.72857666015625,15.17486572265625,5.828857421875,68.3380126953125,48.5992431640625,3.1402587890625
-0.567626953125,-0.219970703125,0.8916015625,5.85174560546875,26.9927978515625,5.01251220703125,69.384765625,49.945068359375,3.289794921875
-0.577880859375,-0.2783203125,0.972412109375,-2.11334228515625,50.34637451171875,12.00103759765625,68.78662109375,49.64599609375,3.5888671875
-0.576904296875,-0.362548828125,1.10302734375,6.7596435546875,82.916259765625,35.614013671875,68.6370849609375,48.8983154296875,3.4393310546875
-0.725830078125,-0.638916015625,1.297607421875,44.10552978515625,102.05078125,61.14959716796875,67.291259765625,49.945068359375,3.5888671875
-0.64990234375,-0.6640625,1.2939453125,78.887939453125,134.3841552734375,96.71783447265625,67.7398681640625,50.9918212890625,1.9439697265625
-0.951416015625,-0.96533203125,1.364501953125,127.38800048828125,155.120849609375,167.54150390625,67.7398681640625,52.1881103515625,2.2430419921875
-0.919921875,-0.347412109375,1.3603515625,95.3521728515625,197.2503662109375,154.96063232421875,66.9921875,53.8330078125,4.78515625
2.0,-0.15869140625,1.8095703125,-37.34588623046875,188.9190673828125,115.30303955078125,65.6463623046875,55.1788330078125,3.4393310546875
2.0,-0.1982421875,1.58447265625,-10.80322265625,147.88818359375,94.5281982421875,64.7491455078125,56.3751220703125,0.7476806640625
2.0,-0.391357421875,1.333251953125,43.19000244140625,70.88470458984375,100.738525390625,63.5528564453125,56.6741943359375,-0.1495361328125
2.0,-0.1005859375,1.259765625,6.11114501953125,91.80450439453125,53.2379150390625,64.4500732421875,56.9732666015625,1.6448974609375
-1.99853515625,-0.345458984375,1.29345703125,1.97601318359375,85.53314208984375,47.90496826171875,62.80517578125,57.720947265625,-0.897216796875
-1.5361328125,0.068115234375,1.238037109375,-19.4549560546875,121.31500244140625,11.98577880859375,62.3565673828125,56.3751220703125,-1.9439697265625
-1.580322265625,-0.067626953125,1.088623046875,-19.47021484375,102.3101806640625,2.67791748046875,63.2537841796875,57.2723388671875,0.4486083984375
-1.392822265625,0.1728515625,1.059814453125,-21.636962890625,62.09564208984375,-20.22552490234375,62.20703125,57.122802734375,-0.299072265625
-1.010498046875,0.27294921875,0.914794921875,-10.36834716796875,43.212890625,-33.63037109375,63.2537841796875,55.4779052734375,-0.4486083984375
-0.86865234375,0.2685546875,0.730712890625,3.3416748046875,5.67626953125,-48.27880859375,61.907958984375,54.730224609375,-0.299072265625
-0.687255859375,0.239990234375,0.572021484375,-10.71929931640625,-14.88494873046875,-55.53436279296875,64.00146484375,54.730224609375,-1.79443359375
-0.504638671875,0.110107421875,0.359375,17.18902587890625,-27.191162109375,-61.72943115234375,64.00146484375,54.43115234375,-1.1962890625
-0.330322265625,0.09521484375,0.2294921875,17.9901123046875,-37.95623779296875,-71.96044921875,64.300537109375,54.730224609375,-0.299072265625
-0.17431640625,0.053955078125,0.062744140625,3.570556640625,-61.614990234375,-73.18878173828125,64.898681640625,54.730224609375,0.59814453125
0.00732421875,0.064208984375,-0.0419921875,4.85992431640625,-89.45465087890625,-79.52117919921875,65.496826171875,54.43115234375,1.79443359375
0.27197265625,0.1279296875,-0.1640625,12.51983642578125,-92.4530029296875,-81.33697509765625,65.0482177734375,53.6834716796875,0.7476806640625
0.372314453125,0.102294921875,-0.251708984375,17.90618896484375,-93.13201904296875,-70.54901123046875,67.889404296875,52.935791015625,1.79443359375
0.379638671875,0.142333984375,-0.318603515625,12.00103759765625,-89.4317626953125,-59.6160888671875,68.0389404296875,52.4871826171875,4.3365478515625
0.34130859375,0.208251953125,-0.3642578125,-0.61798095703125,-110.80169677734375,-49.50714111328125,66.2445068359375,51.8890380859375,3.7384033203125
0.4091796875,0.2119140625,-0.381591796875,-11.138916015625,-79.12445068359375,-42.47283935546875,67.1417236328125,51.5899658203125,5.2337646484375
0.418701171875,0.214111328125,-0.490478515625,-16.31927490234375,-79.46014404296875,-25.81787109375,68.3380126953125,51.5899658203125,5.2337646484375
0.4384765625,0.262451171875,-0.519775390625,-23.223876953125,-43.8079833984375,-19.1497802734375,67.7398681640625,50.3936767578125,4.3365478515625
0.40380859375,0.259521484375,-0.576171875,-32.196044921875,-10.85662841796875,-4.41741943359375,69.2352294921875,51.2908935546875,6.1309814453125
0.49755859375,0.219482421875,-0.566162109375,-32.53936767578125,25.8026123046875,3.83758544921875,68.6370849609375,52.1881103515625,6.1309814453125
0.363037109375,0.254638671875,-0.59423828125,-41.19110107421875,69.17572021484375,16.3116455078125,68.9361572265625,51.2908935546875,4.6356201171875
0.342041015625,0.28369140625,-0.478515625,-39.39056396484375,124.908447265625,23.96392822265625,67.4407958984375,51.8890380859375,4.0374755859375
0.221435546875,0.2529296875,-0.452392578125,-41.31317138671875,141.41845703125,34.942626953125,66.5435791015625,51.5899658203125,0.7476806640625
0.02099609375,0.267578125,-0.34619140625,-53.4515380859375,146.5606689453125,40.13824462890625,66.2445068359375,51.8890380859375,0.4486083984375
-0.20458984375,0.149658203125,-0.2607421875,-56.7626953125,134.98687744140625,53.71856689453125,66.9921875,51.739501953125,-0.299072265625
-0.316162109375,0.084228515625,-0.142333984375,-45.8221435546875,113.037109375,65.58990478515625,66.39404296875,51.141357421875,-1.1962890625
-0.27685546875,0.317138671875,-0.07080078125,-34.66796875,95.8251953125,54.58831787109375,64.7491455078125,51.2908935546875,-3.7384033203125
-0.321044921875,0.394775390625,-0.10888671875,-38.38348388671875,94.90203857421875,47.03521728515625,64.7491455078125,51.2908935546875,-4.9346923828125
-0.488525390625,0.45166015625,0.0185546875,-21.3775634765625,104.8126220703125,43.5791015625,66.094970703125,51.4404296875,-4.18701171875
-0.616455078125,0.517822265625,0.212646484375,-25.38299560546875,101.02081298828125,31.280517578125,63.702392578125,50.543212890625,-6.878662109375
-0.96533203125,0.4609375,0.351806640625,-46.31805419921875,72.31903076171875,19.4854736328125,64.300537109375,50.84228515625,-7.476806640625
-1.2822265625,0.13427734375,0.460693359375,-35.64453125,32.12738037109375,17.98248291015625,64.00146484375,50.84228515625,-8.3740234375
-1.41748046875,-0.1435546875,0.449951171875,7.75909423828125,-26.55029296875,32.31048583984375,64.00146484375,48.748779296875,-8.97216796875
-1.42578125,-0.029052734375,0.614990234375,31.89849853515625,-57.38067626953125,20.4925537109375,64.300537109375,51.4404296875,-10.16845703125
-1.653076171875,-0.1142578125,0.782958984375,33.294677734375,-82.57293701171875,-1.708984375,64.599609375,51.4404296875,-7.77587890625
-1.813232421875,-0.408935546875,0.9345703125,72.27325439453125,-115.6005859375,-20.355224609375,64.599609375,51.739501953125,-6.280517578125
2.0,-0.568115234375,1.009765625,97.8851318359375,-83.5723876953125,-28.3203125,64.00146484375,52.03857421875,-6.878662109375
2.0,-0.62841796875,0.93212890625,114.76898193359375,-102.16522216796875,-9.033203125,64.599609375,52.935791015625,-5.084228515625
-1.802734375,-0.48095703125,0.935302734375,82.1533203125,-154.30450439453125,-19.43206787109375,65.6463623046875,52.4871826171875,-3.1402587890625
-1.364990234375,-0.5439453125,1.126953125,13.25225830078125,-147.3236083984375,-27.9998779296875,65.7958984375,53.8330078125,-2.093505859375
-1.171875,-0.56689453125,1.234619140625,15.37322998046875,-152.435302734375,-43.426513671875,65.496826171875,52.935791015625,-2.093505859375
-1.578125,-0.141845703125,1.052978515625,8.06427001953125,-139.30511474609375,-92.9718017578125,66.2445068359375,53.9825439453125,-1.0467529296875
-1.455322265625,-0.300537109375,1.174072265625,2.28118896484375,-164.4287109375,-44.53277587890625,66.9921875,52.935791015625,-0.897216796875
-1.252685546875,0.0546875,0.93115234375,-5.462646484375,-138.763427734375,-20.46966552734375,67.59033203125,51.739501953125,0.0
-0.913330078125,-0.149169921875,1.16943359375,-32.89794921875,-104.2633056640625,-41.8853759765625,67.4407958984375,53.0853271484375,2.8411865234375
-0.690673828125,-0.66845703125,1.24951171875,-4.180908203125,-132.9345703125,-32.17315673828125,67.59033203125,52.337646484375,1.79443359375
-0.66845703125,0.646484375,1.4638671875,-68.12286376953125,-95.6573486328125,-89.42413330078125,68.1884765625,51.141357421875,2.093505859375
-0.360107421875,-0.463623046875,1.194091796875,4.11224365234375,-19.4091796875,-62.79754638671875,68.3380126953125,50.3936767578125,3.4393310546875
-0.83203125,-0.001220703125,0.924560546875,-16.29638671875,-35.33172607421875,-40.7257080078125,68.0389404296875,50.0946044921875,3.7384033203125
-1.051513671875,-0.134765625,0.971435546875,-4.99725341796875,-58.32672119140625,-9.45281982421875,68.487548828125,50.244140625,2.392578125
-0.78759765625,-0.91943359375,1.236572265625,8.758544921875,-141.47186279296875,21.76666259765625,68.487548828125,50.84228515625,2.99072265625
-0.107177734375,0.227783203125,1.1416015625,19.08111572265625,-0.1220703125,-10.35308837890625,68.78662109375,50.244140625,3.887939453125
-0.74609375,0.0029296875,0.9326171875,2.13623046875,-6.7901611328125,-6.05010986328125,69.384765625,49.346923828125,6.280517578125
-0.5693359375,-0.080322265625,0.9013671875,-11.7034912109375,4.26483154296875,-10.8642578125,69.085693359375,50.244140625,4.18701171875
-0.59521484375,-0.443359375,0.79345703125,-13.71002197265625,27.76336669921875,-0.11444091796875,68.3380126953125,50.6927490234375,3.1402587890625
-0.684814453125,-0.3427734375,0.7666015625,-3.7689208984375,3.31878662109375,10.23101806640625,68.6370849609375,50.3936767578125,3.4393310546875
-0.622314453125,-0.237548828125,0.847900390625,7.7362060546875,-12.99285888671875,10.101318359375,68.487548828125,51.141357421875,2.093505859375
-0.561279296875,-0.052001953125,0.880126953125,17.47894287109375,-7.26318359375,2.0294189453125,68.487548828125,51.141357421875,4.78515625
-0.537109375,-0.1005859375,0.870849609375,12.420654296875,-4.14276123046875,-1.42669677734375,68.78662109375,50.543212890625,3.5888671875
-0.60791015625,-0.199462890625,0.851806640625,7.1868896484375,4.608154296875,3.173828125,67.889404296875,49.945068359375,5.38330078125
-0.57861328125,-0.205078125,0.81982421875,-2.93731689453125,4.2266845703125,5.6915283203125,69.683837890625,51.141357421875,5.38330078125
-0.654296875,-0.229248046875,0.94384765625,15.4266357421875,5.54656982421875,3.875732421875,68.9361572265625,50.3936767578125,5.2337646484375
-0.608642578125,-0.205322265625,0.841064453125,1.312255859375,-8.148193359375,1.9989013671875,68.3380126953125,50.3936767578125,4.3365478515625
-0.550537109375,-0.1591796875,0.853759765625,5.98907470703125,8.30841064453125,3.02886962890625,67.889404296875,50.84228515625,5.9814453125
-0.59228515625,-0.164306640625,0.86572265625,1.07574462890625,-8.7432861328125,4.2572021484375,67.4407958984375,51.2908935546875,5.2337646484375
-0.597412109375,-0.166259765625,0.85400390625,1.80816650390625,-5.92041015625,7.4462890625,68.487548828125,52.03857421875,5.682373046875
-0.5771484375,-0.1640625,0.857421875,0.28228759765625,-4.49371337890625,4.93621826171875,68.78662109375,50.543212890625,4.78515625
-0.608154296875,-0.12060546875,0.87255859375,0.03814697265625,-6.00433349609375,4.32586669921875,69.2352294921875,51.5899658203125,4.9346923828125
-0.570068359375,-0.14306640625,0.84375,-1.71661376953125,-6.85882568359375,0.74005126953125,69.2352294921875,51.5899658203125,4.6356201171875
-0.543701171875,-0.14501953125,0.881591796875,-5.47027587890625,-2.40325927734375,-1.27410888671875,69.8333740234375,50.9918212890625,4.3365478515625
-0.565185546875,-0.1875,0.888427734375,-7.66754150390625,3.77655029296875,-0.5645751953125,68.1884765625,50.84228515625,4.78515625
-0.56103515625,-0.232666015625,0.85400390625,-3.7994384765625,3.11279296875,0.7476806640625,67.889404296875,49.64599609375,4.78515625
-0.56787109375,-0.162353515625,0.85498046875,-7.354736328125,5.22613525390625,-1.01470947265625,67.7398681640625,50.9918212890625,4.3365478515625
-0.54833984375,-0.159912109375,0.85791015625,-8.2244873046875,6.96563720703125,-2.75421142578125,67.889404296875,52.337646484375,5.682373046875
-0.548095703125,-0.148193359375,0.85205078125,-13.336181640625,8.392333984375,-5.5084228515625,69.5343017578125,51.8890380859375,4.3365478515625
-0.540771484375,-0.09130859375,0.863037109375,-22.3541259765625,-4.37164306640625,-13.0615234375,68.3380126953125,51.5899658203125,4.6356201171875
-0.619873046875,-0.03271484375,0.867431640625,-48.797607421875,-7.4615478515625,-20.68328857421875,69.5343017578125,49.1973876953125,3.7384033203125
-0.557861328125,-0.160888671875,0.905517578125,-60.35614013671875,-9.918212890625,-21.453857421875,68.6370849609375,50.3936767578125,3.1402587890625
-0.5546875,-0.19775390625,0.873291015625,-56.64825439453125,8.84246826171875,-29.06036376953125,69.384765625,50.244140625,1.495361328125
-0.61328125,-0.198486328125,0.853515625,-64.8651123046875,11.8255615234375,-36.38458251953125,70.1324462890625,49.7955322265625,1.6448974609375
-0.597900390625,-0.369140625,0.806396484375,-65.17791748046875,12.87078857421875,-33.30230712890625,69.085693359375,48.44970703125,0.897216796875
-0.556884765625,-0.349365234375,0.81005859375,-54.3365478515625,9.37652587890625,-28.34320068359375,69.085693359375,48.150634765625,0.0
-0.5712890625,-0.3701171875,0.79150390625,-46.62322998046875,2.3651123046875,-23.0255126953125,69.5343017578125,48.5992431640625,-0.7476806640625
-0.54833984375,-0.31689453125,0.799072265625,-33.91265869140625,2.79998779296875,-21.8048095703125,69.384765625,47.25341796875,0.0
-0.544189453125,-0.43359375,0.774169921875,-24.84130859375,3.1585693359375,-15.12908935546875,70.1324462890625,47.1038818359375,-1.0467529296875
-0.562744140625,-0.349853515625,0.7900390625,-17.35687255859375,5.3863525390625,-12.481689453125,69.8333740234375,47.4029541015625,-1.0467529296875
-0.548095703125,-0.396728515625,0.794677734375,-6.14166259765625,5.2337646484375,-5.9356689453125,69.5343017578125,47.1038818359375,-0.7476806640625
-0.511474609375,-0.4287109375,0.755126953125,5.11932373046875,8.544921875,1.708984375,69.8333740234375,47.4029541015625,-2.2430419921875
-0.553466796875,-0.397705078125,0.806884765625,6.29425048828125,3.31878662109375,5.56182861328125,69.384765625,46.6552734375,-1.79443359375
-0.59765625,-0.353271484375,0.82958984375,6.18743896484375,4.09698486328125,7.63702392578125,69.384765625,47.552490234375,-1.495361328125
-0.591796875,-0.299560546875,0.828369140625,6.38580322265625,2.93731689453125,0.90789794921875,69.5343017578125,47.4029541015625,-1.6448974609375
-0.5556640625,-0.375244140625,0.78564453125,8.61358642578125,0.19073486328125,2.471923828125,69.384765625,46.6552734375,-1.495361328125
-0.560302734375,-0.3935546875,0.781494140625,11.58905029296875,-1.83868408203125,5.47027587890625,70.281982421875,46.954345703125,-0.897216796875
-0.56787109375,-0.4091796875,0.806396484375,19.29473876953125,-2.96783447265625,7.5836181640625,69.085693359375,46.954345703125,-1.1962890625
-0.564453125,-0.33349609375,0.81103515625,22.63641357421875,2.75421142578125,7.33184814453125,68.9361572265625,46.2066650390625,0.1495361328125
-0.5791015625,-0.318359375,0.838134765625,21.40045166015625,0.96893310546875,6.7596435546875,68.6370849609375,46.8048095703125,-0.4486083984375
-0.582763671875,-0.322021484375,0.821533203125,20.88165283203125,0.1678466796875,6.87408447265625,69.384765625,47.552490234375,0.299072265625
-0.573974609375,-0.356689453125,0.825439453125,21.3470458984375,8.3770751953125,6.26373291015625,69.8333740234375,47.1038818359375,1.3458251953125
-0.55712890625,-0.307861328125,0.864501953125,18.8446044921875,23.834228515625,4.70733642578125,69.5343017578125,48.8983154296875,1.0467529296875
-0.54296875,-0.26171875,0.922119140625,9.063720703125,47.40142822265625,3.27301025390625,68.487548828125,47.8515625,0.897216796875
-0.578369140625,-0.2744140625,1.01513671875,-0.67901611328125,72.174072265625,4.28009033203125,68.6370849609375,48.5992431640625,0.7476806640625
-0.623291015625,-0.607421875,1.315185546875,8.23211669921875,126.8768310546875,31.55517578125,69.683837890625,47.8515625,1.495361328125
-0.72900390625,-0.757568359375,1.43359375,72.74627685546875,172.43194580078125,89.0655517578125,69.2352294921875,46.5057373046875,1.6448974609375
-0.596923828125,-0.6513671875,1.6708984375,95.87860107421875,221.01593017578125,123.1842041015625,68.1884765625,48.150634765625,1.79443359375
-1.269775390625,0.2861328125,1.99993896484375,8.84246826171875,249.15313720703125,49.20196533203125,68.0389404296875,50.0946044921875,0.4486083984375
2.0,-1.93017578125,1.06884765625,60.0433349609375,249.99237060546875,62.62969970703125,67.291259765625,50.543212890625,-0.299072265625
2.0,-0.9306640625,1.097900390625,78.71246337890625,184.326171875,64.5294189453125,67.291259765625,49.64599609375,-2.093505859375
-1.990966796875,0.442138671875,1.330810546875,34.6832275390625,121.71173095703125,138.13018798828125,67.291259765625,50.543212890625,-2.093505859375
2.0,-0.08251953125,0.9599609375,11.322021484375,47.50823974609375,199.2034912109375,66.2445068359375,50.6927490234375,-2.2430419921875
-1.772705078125,-0.25830078125,0.63037109375,20.263671875,56.976318359375,149.04022216796875,64.599609375,54.43115234375,-1.79443359375
-1.475830078125,-0.412841796875,0.975341796875,32.8369140625,79.53643798828125,74.3865966796875,64.00146484375,54.730224609375,-2.093505859375
-1.208740234375,-0.233154296875,0.672607421875,25.115966796875,70.19805908203125,35.7513427734375,64.00146484375,54.132080078125,-1.1962890625
-0.9384765625,0.003173828125,0.76123046875,2.25067138671875,15.73944091796875,6.55364990234375,63.702392578125,56.2255859375,-2.99072265625
-0.707275390625,0.013916015625,0.518310546875,16.6168212890625,-20.53070068359375,-14.09912109375,64.898681640625,54.730224609375,-2.392578125
-0.57421875,0.0341796875,0.41064453125,9.80377197265625,-67.87872314453125,-23.712158203125,65.19775390625,56.2255859375,-1.495361328125
-0.453125,-0.01123046875,0.472900390625,9.01031494140625,-83.27484130859375,-37.33062744140625,64.00146484375,55.926513671875,-1.1962890625
-0.302490234375,-0.011474609375,0.185546875,20.6756591796875,-59.59320068359375,-63.08746337890625,65.496826171875,55.029296875,0.897216796875
-0.249755859375,0.0,0.00244140625,7.20977783203125,-62.15667724609375,-77.70538330078125,65.7958984375,54.730224609375,0.299072265625
-0.1982421875,0.010498046875,-0.095458984375,13.214111328125,-82.9315185546875,-74.92828369140625,65.6463623046875,54.5806884765625,2.8411865234375
-0.08203125,0.03955078125,-0.27880859375,10.955810546875,-88.2568359375,-70.71685791015625,64.7491455078125,54.2816162109375,3.4393310546875
-0.012939453125,0.092529296875,-0.24755859375,2.655029296875,-83.77838134765625,-71.7926025390625,67.59033203125,53.23486328125,4.18701171875
0.052490234375,0.15625,-0.2568359375,-3.6773681640625,-71.00677490234375,-56.7474365234375,67.4407958984375,53.3843994140625,5.5328369140625
0.19091796875,0.20068359375,-0.387939453125,-11.29150390625,-64.3463134765625,-37.6129150390625,67.7398681640625,53.0853271484375,5.8319091796875
0.23388671875,0.258544921875,-0.4326171875,-19.04296875,-43.76983642578125,-24.40643310546875,66.39404296875,52.03857421875,5.38330078125
0.228271484375,0.238525390625,-0.484619140625,-23.24676513671875,-21.6064453125,-6.561279296875,68.487548828125,52.337646484375,5.9814453125
0.221435546875,0.28173828125,-0.477783203125,-24.688720703125,32.15789794921875,10.711669921875,68.78662109375,52.03857421875,5.084228515625
0.130859375,0.282958984375,-0.349365234375,-18.707275390625,60.79864501953125,25.62713623046875,68.3380126953125,51.2908935546875,4.6356201171875
0.053955078125,0.33056640625,-0.2412109375,-20.65277099609375,83.9080810546875,34.85870361328125,67.7398681640625,52.1881103515625,4.9346923828125
0.001220703125,0.31640625,-0.19921875,-22.48382568359375,80.02471923828125,43.72406005859375,67.889404296875,53.23486328125,3.887939453125
-0.0166015625,0.28662109375,-0.168212890625,-27.07672119140625,77.18658447265625,55.33599853515625,66.8426513671875,51.8890380859375,3.4393310546875
-0.029541015625,0.27490234375,-0.182861328125,-33.60748291015625,73.26507568359375,64.94140625,66.8426513671875,51.8890380859375,3.4393310546875
-0.024169921875,0.239013671875,-0.162353515625,-37.9791259765625,73.08197021484375,77.26287841796875,66.8426513671875,51.8890380859375,3.4393310546875
-0.025634765625,0.246337890625,-0.145263671875,-42.1905517578125,71.4569091796875,86.273193359375,66.8426513671875,51.8890380859375,3.4393310546875
-0.031005859375,0.23583984375,-0.166748046875,-46.24176025390625,72.509765625,90.30914306640625,66.39404296875,52.935791015625,2.99072265625
-0.05322265625,0.183349609375,-0.1689453125,-50.537109375,75.897216796875,95.26824951171875,66.2445068359375,54.2816162109375,1.9439697265625
-0.142333984375,0.191650390625,-0.13037109375,-51.49078369140625,78.40728759765625,96.435546875,65.9454345703125,54.5806884765625,0.1495361328125
-0.210693359375,0.162353515625,-0.091552734375,-50.65155029296875,84.5489501953125,95.06988525390625,65.9454345703125,54.5806884765625,0.1495361328125
-0.2919921875,0.13232421875,0.01318359375,-45.0897216796875,89.0350341796875,96.0693359375,65.9454345703125,54.5806884765625,0.1495361328125
-0.378662109375,0.218994140625,0.09228515625,-40.3289794921875,90.79742431640625,94.99359130859375,65.0482177734375,53.9825439453125,-0.1495361328125
-0.42431640625,0.241943359375,0.157470703125,-33.355712890625,91.0797119140625,88.9892578125,63.8519287109375,54.8797607421875,-1.3458251953125
-0.52685546875,0.243896484375,0.20751953125,-28.08380126953125,84.808349609375,80.4290771484375,64.300537109375,55.926513671875,-1.495361328125
-0.63671875,0.23681640625,0.29345703125,-22.88055419921875,75.50048828125,68.87054443359375,64.300537109375,55.926513671875,-1.495361328125
-0.736083984375,0.326416015625,0.357666015625,-19.06585693359375,63.5528564453125,54.63409423828125,64.300537109375,55.926513671875,-1.495361328125
-0.793701171875,0.27685546875,0.375244140625,-15.72418212890625,46.5850830078125,40.496826171875,63.702392578125,55.62744140625,-3.887939453125
-0.86181640625,0.22998046875,0.400634765625,-12.94708251953125,27.587890625,29.1595458984375,64.599609375,55.328369140625,-2.691650390625
-0.8515625,0.27685546875,0.397705078125,-9.3841552734375,13.427734375,15.75469970703125,63.8519287109375,56.3751220703125,-2.8411865234375
-0.80615234375,0.199951171875,0.36181640625,-7.5225830078125,-2.166748046875,10.3302001953125,63.8519287109375,56.3751220703125,-2.8411865234375
-0.8173828125,0.091064453125,0.3251953125,3.01361083984375,-14.678955078125,9.033203125,63.8519287109375,56.3751220703125,-2.8411865234375
-0.855712890625,0.192138671875,0.328857421875,8.85009765625,-20.7061767578125,9.74273681640625,63.8519287109375,54.5806884765625,-2.8411865234375
-0.820556640625,0.192626953125,0.34814453125,8.52203369140625,-20.45440673828125,11.444091796875,62.9547119140625,55.1788330078125,-3.4393310546875
-0.876708984375,0.1787109375,0.43798828125,7.4462890625,-18.54705810546875,16.357421875,63.702392578125,55.029296875,-3.887939453125
-1.009521484375,0.309814453125,0.559814453125,8.7432861328125,-14.190673828125,15.7470703125,63.702392578125,55.029296875,-3.887939453125
-1.112060546875,0.22314453125,0.670166015625,8.17108154296875,-11.2457275390625,16.97540283203125,63.702392578125,55.029296875,-3.887939453125
-1.25341796875,0.000732421875,0.757080078125,13.57269287109375,-16.77703857421875,21.484375,63.702392578125,55.029296875,-3.887939453125
-1.40771484375,-0.09375,0.85107421875,21.2860107421875,-29.30450439453125,25.32196044921875,64.00146484375,55.62744140625,-3.887939453125
-1.4853515625,-0.108154296875,0.9072265625,21.636962890625,-49.407958984375,15.31982421875,63.2537841796875,56.6741943359375,-4.3365478515625
-1.46923828125,-0.1435546875,0.96337890625,24.6429443359375,-67.047119140625,-0.66375732421875,63.2537841796875,56.6741943359375,-4.3365478515625
-1.4375,-0.113525390625,0.948486328125,18.94378662109375,-95.58868408203125,-17.52471923828125,63.2537841796875,56.6741943359375,-4.3365478515625
-1.331298828125,-0.178466796875,0.945556640625,22.34649658203125,-98.7396240234375,-29.0069580078125,63.2537841796875,56.6741943359375,-4.3365478515625
-1.35302734375,-0.3466796875,0.90869140625,-1.7242431640625,-128.18145751953125,-27.41241455078125,62.80517578125,57.421875,-2.093505859375
-1.317626953125,-0.406982421875,0.9580078125,21.05712890625,-112.3046875,-37.39166259765625,64.00146484375,55.926513671875,-2.99072265625
-1.4892578125,-0.383544921875,1.0009765625,30.67779541015625,-113.67034912109375,-47.32513427734375,63.2537841796875,56.9732666015625,-1.3458251953125
-1.394775390625,-0.310546875,0.97314453125,39.40582275390625,-119.3389892578125,-64.58282470703125,63.2537841796875,56.9732666015625,-1.3458251953125
-1.44091796875,-0.270263671875,1.022705078125,28.25164794921875,-124.58038330078125,-71.96807861328125,63.2537841796875,56.9732666015625,-1.3458251953125
-1.416259765625,-0.19189453125,1.0341796875,30.6549072265625,-104.827880859375,-71.22039794921875,64.300537109375,56.2255859375,-0.897216796875
-1.618408203125,-0.13916015625,1.052001953125,13.28277587890625,-111.236572265625,-57.0068359375,63.5528564453125,57.5714111328125,-1.0467529296875
-1.760986328125,-0.02490234375,1.142822265625,13.00048828125,-111.0992431640625,-44.0216064453125,64.00146484375,55.926513671875,-1.495361328125
-1.818603515625,0.048583984375,1.19677734375,14.312744140625,-102.874755859375,-30.9295654296875,64.00146484375,55.926513671875,-1.495361328125
-1.769775390625,0.099609375,1.06396484375,9.55963134765625,-109.7869873046875,-12.26043701171875,64.00146484375,55.926513671875,-1.495361328125
-1.6923828125,0.18798828125,1.064453125,5.04302978515625,-99.25079345703125,-6.55364990234375,64.898681640625,55.926513671875,0.59814453125
2.0,0.399169921875,0.95849609375,20.02716064453125,-141.2811279296875,-81.3446044921875,64.898681640625,56.82373046875,1.79443359375
2.0,-0.59619140625,1.33447265625,12.603759765625,-186.88201904296875,-64.70489501953125,64.4500732421875,56.0760498046875,2.2430419921875
-1.983642578125,-0.65966796875,0.888427734375,49.01885986328125,-153.19061279296875,-49.285888671875,64.4500732421875,56.0760498046875,2.2430419921875
-1.62060546875,-0.042724609375,0.838134765625,38.1317138671875,-107.48291015625,-55.206298828125,64.4500732421875,56.0760498046875,2.2430419921875
-1.21875,0.502197265625,1.280029296875,19.5465087890625,-90.99578857421875,-70.86944580078125,64.4500732421875,56.0760498046875,2.2430419921875
-0.66259765625,0.056396484375,1.1572265625,-19.2718505859375,-167.236328125,-109.3292236328125,66.9921875,55.029296875,5.38330078125
-1.3916015625,0.0,1.61083984375,-201.7974853515625,250.0,-111.63330078125,66.9921875,54.730224609375,5.084228515625
-0.24462890625,-0.75341796875,1.4912109375,-57.9071044921875,-202.728271484375,-106.0028076171875,66.2445068359375,54.5806884765625,4.0374755859375
-0.65771484375,-0.14990234375,1.4677734375,-12.14599609375,-99.23553466796875,-111.51123046875,66.2445068359375,54.5806884765625,4.0374755859375
-0.787841796875,-1.028564453125,1.063720703125,55.35125732421875,-183.78448486328125,-76.59149169921875,66.2445068359375,54.5806884765625,4.0374755859375
-0.4794921875,-0.120849609375,1.599365234375,32.40203857421875,-48.4619140625,-91.74346923828125,67.889404296875,51.739501953125,7.476806640625
-0.69873046875,-0.25830078125,1.237548828125,-34.8663330078125,-80.75714111328125,-67.87109375,66.8426513671875,52.1881103515625,7.0281982421875
-1.143798828125,-0.521484375,0.95654296875,-63.9190673828125,-86.944580078125,-46.44012451171875,66.8426513671875,52.1881103515625,6.7291259765625
-0.861328125,-0.366455078125,0.9599609375,-11.04736328125,-88.5467529296875,-33.111572265625,66.8426513671875,52.1881103515625,6.7291259765625
-0.6611328125,-0.54052734375,1.05029296875,-15.43426513671875,-95.42083740234375,-0.518798828125,66.8426513671875,52.1881103515625,6.7291259765625
-0.491455078125,-0.313232421875,0.92431640625,-28.0914306640625,-80.43670654296875,-18.3868408203125,67.59033203125,52.03857421875,6.57958984375
-0.719482421875,-0.3564453125,0.823974609375,-30.63201904296875,-44.61669921875,-17.8680419921875,68.1884765625,52.337646484375,7.476806640625
-0.87548828125,-0.373046875,0.8955078125,-29.21295166015625,-37.567138671875,-1.73187255859375,68.3380126953125,51.2908935546875,6.1309814453125
-0.65771484375,-0.19677734375,0.99072265625,-19.27947998046875,-25.85601806640625,1.02996826171875,68.3380126953125,51.2908935546875,6.1309814453125
-0.558837890625,-0.21630859375,1.07275390625,-27.099609375,-19.26422119140625,6.23321533203125,68.3380126953125,51.2908935546875,6.1309814453125
-0.55615234375,-0.147216796875,1.131591796875,-28.72467041015625,15.61737060546875,4.364013671875,68.3380126953125,51.2908935546875,4.6356201171875
-0.538818359375,-0.105224609375,1.0654296875,-1.64794921875,-4.12750244140625,0.45013427734375,67.59033203125,51.739501953125,5.084228515625
-0.455322265625,0.0224609375,1.029052734375,9.78851318359375,14.16015625,-6.88934326171875,68.3380126953125,51.8890380859375,4.9346923828125
-0.553466796875,0.076171875,0.8310546875,-11.0931396484375,-1.6632080078125,-5.60760498046875,68.3380126953125,51.8890380859375,4.9346923828125
-0.628662109375,0.087158203125,0.872314453125,-9.490966796875,-5.01251220703125,-9.3231201171875,68.3380126953125,51.8890380859375,4.9346923828125
-0.5888671875,-0.03662109375,0.852294921875,-8.758544921875,-16.1285400390625,-9.9334716796875,68.3380126953125,51.8890380859375,4.9346923828125
-0.62548828125,-0.2099609375,0.82666015625,-2.31170654296875,-20.56121826171875,-8.9569091796875,69.5343017578125,50.9918212890625,5.8319091796875
-0.610595703125,-0.2685546875,0.809814453125,-11.8255615234375,-15.14434814453125,-6.09588623046875,67.4407958984375,50.6927490234375,5.2337646484375
-0.619384765625,-0.266357421875,0.8310546875,-14.68658447265625,-9.97161865234375,-5.07354736328125,67.4407958984375,50.6927490234375,5.2337646484375
-0.575927734375,-0.2255859375,0.84814453125,-12.9241943359375,-3.692626953125,-4.8675537109375,67.4407958984375,50.6927490234375,5.2337646484375
-0.569091796875,-0.192138671875,0.79443359375,-12.908935546875,1.50299072265625,-4.33349609375,67.4407958984375,50.6927490234375,5.2337646484375
-0.576904296875,-0.146728515625,0.888427734375,-12.39776611328125,-2.01416015625,-4.364013671875,68.1884765625,50.244140625,4.78515625
-0.584716796875,-0.15673828125,0.851806640625,-11.58905029296875,-7.99560546875,-4.180908203125,67.889404296875,51.141357421875,5.682373046875
-0.572265625,-0.117431640625,0.88037109375,-13.06915283203125,-12.04681396484375,-5.3253173828125,69.8333740234375,51.8890380859375,6.1309814453125
-0.544921875,-0.1025390625,0.913330078125,-15.8538818359375,-11.566162109375,-6.4697265625,69.8333740234375,51.8890380859375,6.1309814453125
-0.553955078125,-0.100830078125,0.905517578125,-16.09039306640625,-9.6588134765625,-8.03375244140625,69.8333740234375,51.8890380859375,6.1309814453125
-0.556396484375,-0.137451171875,0.765869140625,-15.3656005859375,0.70953369140625,-13.00811767578125,69.085693359375,51.141357421875,3.887939453125
-0.539794921875,-0.163330078125,0.888916015625,-18.16558837890625,-5.56182861328125,-9.674072265625,67.4407958984375,50.9918212890625,3.7384033203125
-0.565673828125,-0.16845703125,0.916259765625,-22.08709716796875,-5.50079345703125,-7.720947265625,68.1884765625,50.84228515625,4.78515625
-0.55859375,-0.171142578125,0.86474609375,-19.6990966796875,-6.35528564453125,-9.185791015625,68.1884765625,50.84228515625,4.78515625
-0.59228515625,-0.1884765625,0.843505859375,-19.38629150390625,-6.66046142578125,-8.30078125,68.1884765625,50.84228515625,4.78515625
-0.568115234375,-0.212890625,0.86669921875,-20.5230712890625,-4.8370361328125,-7.080078125,68.3380126953125,50.9918212890625,3.4393310546875
-0.555908203125,-0.217529296875,0.860595703125,-20.0347900390625,-3.53240966796875,-6.15692138671875,68.487548828125,49.346923828125,3.289794921875
-0.564453125,-0.239990234375,0.858154296875,-19.93560791015625,-1.2969970703125,-4.50897216796875,68.78662109375,50.84228515625,3.289794921875
-0.550537109375,-0.289794921875,0.866943359375,-14.2669677734375,0.72479248046875,-0.2593994140625,70.281982421875,50.244140625,3.289794921875
-0.5458984375,-0.23828125,0.8486328125,-11.3983154296875,13.671875,0.54168701171875,68.0389404296875,50.3936767578125,3.4393310546875
-0.52734375,-0.24853515625,0.8427734375,-15.0909423828125,-1.6632080078125,3.5552978515625,68.9361572265625,50.6927490234375,3.7384033203125
-0.581787109375,-0.212890625,0.818603515625,1.44195556640625,-7.57598876953125,5.53131103515625,68.9361572265625,50.3936767578125,3.4393310546875
-0.5751953125,-0.200927734375,0.85888671875,0.11444091796875,-4.608154296875,2.44903564453125,68.3380126953125,50.6927490234375,3.4393310546875
-0.577880859375,-0.178955078125,0.869384765625,-3.204345703125,-3.77655029296875,2.92205810546875,68.78662109375,49.945068359375,3.5888671875
-0.58984375,-0.21337890625,0.87060546875,0.4730224609375,-1.220703125,3.173828125,67.889404296875,51.141357421875,2.691650390625
-0.553955078125,-0.210205078125,0.867919921875,3.22723388671875,9.63592529296875,1.1444091796875,68.1884765625,52.03857421875,1.79443359375
-0.591552734375,-0.218505859375,0.87060546875,7.71331787109375,3.80706787109375,1.28936767578125,69.384765625,51.739501953125,3.5888671875
-0.52490234375,-0.1982421875,0.880859375,3.7689208984375,6.76727294921875,-0.091552734375,69.2352294921875,50.9918212890625,3.1402587890625
-0.59033203125,-0.1650390625,0.849609375,2.62451171875,3.16619873046875,0.61798095703125,68.3380126953125,50.3936767578125,4.0374755859375
-0.549560546875,-0.208251953125,0.893310546875,-4.24957275390625,-3.60870361328125,1.19781494140625,67.7398681640625,50.3936767578125,4.0374755859375
-0.5615234375,-0.169189453125,0.831298828125,-1.50299072265625,1.68609619140625,2.471923828125,68.1884765625,50.244140625,4.486083984375
-0.551025390625,-0.20068359375,0.817626953125,-4.5623779296875,0.35858154296875,2.0599365234375,67.4407958984375,50.3936767578125,3.1402587890625
-0.555419921875,-0.192626953125,0.8623046875,-7.46917724609375,3.8604736328125,1.60980224609375,68.0389404296875,51.5899658203125,3.4393310546875
-0.581787109375,-0.22265625,0.8427734375,-2.8228759765625,-0.5340576171875,2.15911865234375,68.1884765625,51.141357421875,3.289794921875
-0.552978515625,-0.200439453125,0.8623046875,-2.1820068359375,-1.8463134765625,2.5634765625,69.8333740234375,51.8890380859375,3.7384033203125
-0.572021484375,-0.18994140625,0.869140625,0.48828125,-5.0811767578125,1.0528564453125,69.5343017578125,50.9918212890625,3.7384033203125
-0.552734375,-0.189208984375,0.8740234375,1.007080078125,-5.5389404296875,-0.3814697265625,69.085693359375,50.84228515625,2.99072265625
-0.568603515625,-0.200439453125,0.861328125,0.32806396484375,-4.46319580078125,-1.38092041015625,68.9361572265625,50.3936767578125,4.6356201171875
-0.54736328125,-0.197265625,0.858642578125,-3.204345703125,-5.13458251953125,-1.02996826171875,67.7398681640625,50.9918212890625,2.8411865234375
-0.54736328125,-0.218505859375,0.83740234375,-3.73077392578125,-4.34112548828125,-2.7008056640625,68.78662109375,50.84228515625,2.691650390625
-0.53955078125,-0.19970703125,0.87353515625,-6.28662109375,0.7781982421875,-1.96075439453125,68.9361572265625,52.4871826171875,1.9439697265625
-0.5439453125,-0.209228515625,0.8818359375,-3.2501220703125,0.17547607421875,-3.8299560546875,68.487548828125,49.945068359375,3.5888671875
-0.54833984375,-0.187255859375,0.8310546875,-3.89862060546875,2.35748291015625,-5.07354736328125,68.0389404296875,49.4964599609375,2.8411865234375
-0.544921875,-0.211181640625,0.85595703125,-0.51116943359375,4.08935546875,-4.92095947265625,69.384765625,50.84228515625,2.99072265625
-0.538330078125,-0.209716796875,0.869140625,1.28936767578125,3.8604736328125,-4.96673583984375,67.4407958984375,50.0946044921875,2.5421142578125
-0.571044921875,-0.2490234375,0.87451171875,2.9754638671875,4.50897216796875,-3.94439697265625,69.085693359375,49.945068359375,2.99072265625
-0.554931640625,-0.195556640625,0.8642578125,4.08172607421875,4.81414794921875,-3.89862060546875,68.78662109375,51.141357421875,3.5888671875
-0.552978515625,-0.224609375,0.86865234375,2.6397705078125,4.6539306640625,-2.5177001953125,68.9361572265625,50.3936767578125,4.0374755859375
-0.55908203125,-0.22119140625,0.8466796875,2.63214111328125,2.8533935546875,-1.09100341796875,69.2352294921875,50.3936767578125,4.3365478515625
-0.5537109375,-0.242431640625,0.852783203125,0.90789794921875,2.86865234375,0.701904296875,70.4315185546875,50.9918212890625,3.7384033203125
-0.53759765625,-0.19873046875,0.86767578125,4.84466552734375,2.4566650390625,-0.030517578125,68.78662109375,50.84228515625,5.084228515625
-0.531494140625,-0.213134765625,0.884765625,4.26483154296875,7.1563720703125,-1.22833251953125,68.1884765625,51.141357421875,4.18701171875
-0.536376953125,-0.257568359375,0.888671875,4.241943359375,14.86968994140625,-0.8544921875,68.487548828125,50.84228515625,3.5888671875
-0.548095703125,-0.25439453125,0.876220703125,3.692626953125,23.2391357421875,1.15966796875,67.889404296875,51.141357421875,4.486083984375
-0.53759765625,-0.221435546875,0.922607421875,1.89971923828125,29.68597412109375,3.5552978515625,68.6370849609375,49.7955322265625,5.5328369140625
-0.552978515625,-0.21875,0.998291015625,0.58746337890625,44.98291015625,9.71221923828125,68.0389404296875,49.1973876953125,4.3365478515625
-0.595947265625,-0.3740234375,1.068359375,11.7950439453125,69.28253173828125,17.76885986328125,68.1884765625,52.63671875,5.084228515625
-0.68896484375,-0.412353515625,1.33984375,47.1343994140625,107.33795166015625,36.30828857421875,67.59033203125,49.0478515625,4.18701171875
-0.696533203125,-0.43994140625,1.480712890625,78.18603515625,150.33721923828125,73.150634765625,69.384765625,51.141357421875,5.38330078125
-0.82958984375,-0.58203125,1.55224609375,93.0023193359375,199.7222900390625,127.67791748046875,67.59033203125,52.935791015625,4.486083984375
-1.291015625,-1.28466796875,1.510986328125,88.4857177734375,224.5635986328125,148.1781005859375,67.1417236328125,55.4779052734375,3.4393310546875
-1.98779296875,0.421875,1.319091796875,-3.45611572265625,237.5335693359375,76.812744140625,66.2445068359375,54.5806884765625,4.3365478515625
2.0,-0.06005859375,1.078125,-47.8363037109375,204.864501953125,-0.43487548828125,67.4407958984375,54.2816162109375,1.6448974609375
-1.890625,0.262939453125,1.307861328125,-19.41680908203125,97.38922119140625,65.14739990234375,65.3472900390625,56.3751220703125,-0.1495361328125
-1.746337890625,0.15380859375,1.249267578125,-65.74249267578125,103.46221923828125,107.208251953125,65.496826171875,55.029296875,0.299072265625
-1.757080078125,-0.324951171875,1.2216796875,-67.9931640625,71.136474609375,120.68939208984375,64.00146484375,57.122802734375,-1.79443359375
-1.37548828125,-0.116943359375,1.15380859375,-58.441162109375,22.6287841796875,94.3603515625,63.104248046875,56.82373046875,-1.79443359375
-1.294677734375,-0.39697265625,0.835693359375,-57.35015869140625,26.66473388671875,62.01171875,62.3565673828125,58.4686279296875,-1.9439697265625
-1.05517578125,-0.087890625,0.857666015625,-48.6602783203125,43.23577880859375,36.2396240234375,61.60888671875,58.02001953125,-2.093505859375
-0.915283203125,-0.047607421875,0.7060546875,-46.56982421875,27.51922607421875,7.3394775390625,62.0574951171875,58.4686279296875,-4.0374755859375
-0.8095703125,-0.0283203125,0.61083984375,-18.7530517578125,2.87628173828125,-20.82061767578125,61.7584228515625,57.8704833984375,-2.8411865234375
-0.722412109375,0.078857421875,0.578369140625,-0.18310546875,-11.77215576171875,-43.0908203125,61.907958984375,57.122802734375,-3.5888671875
-0.633544921875,0.06298828125,0.48828125,-11.08551025390625,-6.87408447265625,-58.9141845703125,63.4033203125,57.720947265625,-2.99072265625
-0.635009765625,0.08837890625,0.468505859375,-1.62506103515625,-38.67340087890625,-67.07000732421875,63.5528564453125,56.9732666015625,-3.4393310546875
-0.458251953125,0.137939453125,0.25439453125,-5.1116943359375,-50.47607421875,-69.8394775390625,63.8519287109375,55.7769775390625,-2.8411865234375
-0.190673828125,0.127197265625,0.16552734375,-6.66046142578125,-40.6036376953125,-72.45635986328125,63.702392578125,55.926513671875,-2.093505859375
-0.188720703125,0.13037109375,-0.0068359375,-11.17706298828125,-36.1175537109375,-72.79205322265625,62.506103515625,56.2255859375,-2.99072265625
-0.318359375,0.0712890625,0.10205078125,11.65008544921875,-25.1312255859375,-75.25634765625,65.0482177734375,55.7769775390625,-1.6448974609375
-0.3115234375,0.127197265625,-0.139892578125,17.8985595703125,-33.07342529296875,-75.0579833984375,66.2445068359375,53.0853271484375,-0.4486083984375
-0.150390625,0.233154296875,-0.271484375,11.31439208984375,-35.980224609375,-71.502685546875,65.496826171875,55.029296875,-0.299072265625
0.0498046875,0.321044921875,-0.309326171875,-2.5482177734375,-22.20916748046875,-60.06622314453125,64.898681640625,53.533935546875,-0.299072265625
0.07763671875,0.33154296875,-0.3076171875,-1.6937255859375,-16.71600341796875,-35.5377197265625,66.2445068359375,53.9825439453125,0.7476806640625
0.208251953125,0.397705078125,-0.27490234375,-7.3394775390625,-6.5155029296875,-18.73779296875,66.693115234375,53.533935546875,-0.59814453125
0.207275390625,0.3564453125,-0.25927734375,2.37274169921875,9.6893310546875,-2.4871826171875,65.9454345703125,53.0853271484375,1.0467529296875
0.204833984375,0.400634765625,-0.177978515625,5.0048828125,45.135498046875,-0.18310546875,65.6463623046875,53.6834716796875,0.1495361328125
0.119384765625,0.351318359375,-0.14111328125,6.35528564453125,52.75726318359375,11.016845703125,67.291259765625,53.533935546875,0.0
0.052001953125,0.25732421875,-0.109619140625,-0.579833984375,56.98394775390625,24.31488037109375,66.2445068359375,53.9825439453125,0.4486083984375
0.034423828125,0.236083984375,-0.123046875,-4.96673583984375,51.8341064453125,33.76007080078125,64.898681640625,52.935791015625,0.299072265625
0.022705078125,0.19482421875,-0.10009765625,-12.6190185546875,58.10546875,38.51318359375,65.9454345703125,53.0853271484375,-1.3458251953125
-0.0830078125,0.116943359375,-0.048583984375,-17.2882080078125,76.0040283203125,43.44940185546875,65.19775390625,52.935791015625,-2.392578125
-0.205322265625,0.132568359375,0.0498046875,-24.51324462890625,77.65960693359375,51.41448974609375,65.0482177734375,53.3843994140625,-0.7476806640625
-0.2529296875,0.158203125,0.037353515625,-23.712158203125,73.90594482421875,65.51361083984375,65.3472900390625,53.6834716796875,-2.5421142578125
-0.29443359375,0.137939453125,0.043701171875,-27.862548828125,65.7196044921875,64.96429443359375,63.8519287109375,54.2816162109375,-3.7384033203125
-0.430908203125,0.038818359375,0.178466796875,-27.191162109375,51.3458251953125,51.4068603515625,64.4500732421875,54.5806884765625,-4.9346923828125
-0.48095703125,0.04931640625,0.24267578125,-33.07342529296875,48.74420166015625,30.1971435546875,63.702392578125,55.029296875,-5.38330078125
-0.5927734375,0.16064453125,0.325927734375,-34.70611572265625,37.9791259765625,10.13946533203125,63.2537841796875,53.3843994140625,-5.8319091796875
-0.666748046875,0.1083984375,0.417724609375,-34.37042236328125,25.2532958984375,19.32525634765625,62.80517578125,53.23486328125,-8.673095703125
-0.735595703125,0.0703125,0.4033203125,-21.67510986328125,4.60052490234375,34.27886962890625,63.702392578125,53.8330078125,-7.177734375
-0.805419921875,0.08056640625,0.41162109375,-7.6446533203125,-21.96502685546875,33.79058837890625,62.9547119140625,53.3843994140625,-7.6263427734375
-0.88623046875,0.092529296875,0.548828125,-12.79449462890625,-39.49737548828125,17.26531982421875,62.9547119140625,54.5806884765625,-7.9254150390625
-1.031005859375,-0.0888671875,0.6904296875,-6.70623779296875,-61.9659423828125,-4.791259765625,62.3565673828125,53.9825439453125,-7.0281982421875
-1.109619140625,-0.219482421875,0.78173828125,9.07135009765625,-73.18878173828125,-25.38299560546875,62.6556396484375,54.2816162109375,-8.2244873046875
-1.263427734375,-0.162109375,0.810791015625,26.7333984375,-91.4764404296875,-39.34478759765625,63.4033203125,55.62744140625,-8.3740234375
-1.220703125,-0.2314453125,0.759033203125,34.38568115234375,-110.20660400390625,-47.637939453125,62.80517578125,53.8330078125,-6.878662109375
-1.309814453125,-0.381591796875,0.90283203125,18.15032958984375,-142.06695556640625,-51.01776123046875,63.702392578125,55.029296875,-5.682373046875
-1.376708984375,-0.15576171875,1.1181640625,40.2679443359375,-121.17767333984375,-61.14959716796875,64.599609375,55.029296875,-5.682373046875
-1.630615234375,-0.222900390625,1.195556640625,42.68646240234375,-139.3890380859375,-37.0635986328125,63.8519287109375,56.3751220703125,-4.3365478515625
-1.57470703125,-0.244384765625,0.988525390625,46.2493896484375,-130.47027587890625,0.67901611328125,65.19775390625,55.926513671875,-1.79443359375
-1.392578125,-0.025634765625,0.94775390625,27.7252197265625,-97.70965576171875,-2.22015380859375,64.898681640625,57.122802734375,-1.79443359375
-1.44482421875,-0.05078125,0.822265625,1.9683837890625,-67.8558349609375,-102.47039794921875,63.5528564453125,55.7769775390625,-2.2430419921875
-1.796142578125,-1.33642578125,0.811767578125,79.21600341796875,-128.16619873046875,-78.04107666015625,65.19775390625,55.926513671875,-0.299072265625
-1.62109375,0.532470703125,1.060546875,13.13018798828125,-137.88604736328125,-56.0302734375,65.19775390625,53.8330078125,1.79443359375
-0.80517578125,-0.01025390625,1.747314453125,-77.32391357421875,-132.7972412109375,-126.6021728515625,66.094970703125,54.730224609375,3.887939453125
-0.751953125,-0.43017578125,1.518310546875,-26.3519287109375,-146.04949951171875,-56.3812255859375,67.291259765625,53.533935546875,4.486083984375
-0.544677734375,-0.19091796875,1.32763671875,-35.72845458984375,-114.99786376953125,-30.52520751953125,66.5435791015625,53.3843994140625,3.7384033203125
-1.01171875,-0.585205078125,0.820556640625,-23.61297607421875,-69.4122314453125,1.41143798828125,68.3380126953125,52.7862548828125,5.2337646484375
-0.48046875,-0.537841796875,1.216796875,-13.71002197265625,9.74273681640625,8.41522216796875,66.5435791015625,53.9825439453125,3.1402587890625
-0.414306640625,-0.039794921875,1.091552734375,-16.5252685546875,13.90838623046875,-3.24249267578125,67.889404296875,53.23486328125,4.78515625
-0.634033203125,-0.00732421875,0.89404296875,-6.79779052734375,-24.261474609375,-3.13568115234375,66.8426513671875,53.0853271484375,4.0374755859375
-0.562255859375,-0.263671875,0.958984375,-2.6702880859375,-12.48931884765625,-11.1541748046875,65.6463623046875,53.0853271484375,3.7384033203125
-0.65576171875,-0.3046875,0.86181640625,-19.34814453125,-33.97369384765625,3.6163330078125,67.59033203125,52.337646484375,4.78515625
-0.623779296875,-0.266357421875,0.8095703125,-15.63262939453125,-2.28118896484375,6.622314453125,66.8426513671875,52.1881103515625,3.1402587890625
-0.63427734375,-0.193115234375,0.807373046875,6.927490234375,-0.1678466796875,7.94219970703125,65.9454345703125,52.4871826171875,3.1402587890625
-0.5712890625,-0.106689453125,0.87158203125,-3.41033935546875,-5.88226318359375,4.20379638671875,67.4407958984375,53.0853271484375,3.4393310546875
-0.525146484375,-0.009521484375,0.93017578125,-4.17327880859375,-0.1983642578125,-5.13458251953125,66.8426513671875,53.3843994140625,3.1402587890625
-0.48583984375,-0.089599609375,0.912353515625,-14.34326171875,-2.02178955078125,-8.58306884765625,67.889404296875,52.03857421875,3.887939453125
-0.51318359375,-0.096435546875,0.919189453125,-21.17156982421875,-7.01141357421875,-13.5040283203125,68.1884765625,52.63671875,2.093505859375
-0.583251953125,-0.255859375,0.87548828125,-24.4903564453125,-3.47137451171875,-8.44573974609375,67.889404296875,52.935791015625,2.99072265625
-0.56201171875,-0.2880859375,0.855712890625,-26.7333984375,4.5623779296875,-9.33074951171875,67.291259765625,52.03857421875,2.093505859375
-0.576171875,-0.30908203125,0.849365234375,-28.5797119140625,0.40435791015625,-6.988525390625,68.0389404296875,53.3843994140625,2.2430419921875
-0.586181640625,-0.260009765625,0.857421875,-17.5323486328125,0.99945068359375,-5.94329833984375,67.59033203125,53.533935546875,2.093505859375
-0.545654296875,-0.215087890625,0.86279296875,-18.9361572265625,5.1727294921875,-7.87353515625,66.8426513671875,52.4871826171875,1.3458251953125
-0.5625,-0.259521484375,0.845458984375,-17.82989501953125,11.3677978515625,-11.97052001953125,68.3380126953125,52.1881103515625,1.0467529296875
-0.527587890625,-0.21533203125,0.88330078125,-29.22821044921875,10.6353759765625,-14.373779296875,67.889404296875,52.337646484375,0.0
-0.5888671875,-0.247802734375,0.862548828125,-33.94317626953125,5.828857421875,-13.2598876953125,67.7398681640625,51.5899658203125,1.3458251953125
-0.560546875,-0.26318359375,0.840576171875,-26.20697021484375,1.30462646484375,-8.07952880859375,69.384765625,50.84228515625,0.0
-0.54638671875,-0.310791015625,0.823974609375,-22.30072021484375,-3.1585693359375,-3.9520263671875,67.59033203125,52.337646484375,-0.299072265625
-0.52001953125,-0.3056640625,0.840087890625,-11.60430908203125,-3.21197509765625,0.5950927734375,68.78662109375,51.141357421875,-0.299072265625
-0.52587890625,-0.308349609375,0.871337890625,-0.86212158203125,5.55419921875,-0.6256103515625,68.0389404296875,51.8890380859375,-1.3458251953125
-0.534912109375,-0.255126953125,0.840576171875,-2.86865234375,7.354736328125,0.1983642578125,68.0389404296875,50.3936767578125,-0.7476806640625
-0.54345703125,-0.305908203125,0.85595703125,-0.93841552734375,11.3067626953125,0.43487548828125,67.1417236328125,51.2908935546875,-1.0467529296875
-0.59033203125,-0.324462890625,0.823974609375,8.636474609375,2.11334228515625,6.47735595703125,67.7398681640625,51.8890380859375,0.4486083984375
-0.574951171875,-0.3251953125,0.8310546875,16.11328125,5.89752197265625,6.7291259765625,67.291259765625,50.84228515625,-0.897216796875
-0.547607421875,-0.258544921875,0.85791015625,17.66204833984375,2.87628173828125,5.56182861328125,67.7398681640625,51.8890380859375,-0.7476806640625
-0.580078125,-0.2763671875,0.8583984375,16.693115234375,-0.99945068359375,6.69097900390625,67.1417236328125,51.8890380859375,-0.1495361328125
-0.552734375,-0.2607421875,0.8623046875,13.58795166015625,0.7171630859375,5.67626953125,68.487548828125,51.141357421875,1.495361328125
-0.580810546875,-0.22509765625,0.845947265625,15.32745361328125,-0.98419189453125,4.0130615234375,68.3380126953125,53.6834716796875,1.0467529296875
-0.545166015625,-0.25390625,0.849853515625,4.75311279296875,1.77001953125,2.2430419921875,68.3380126953125,53.3843994140625,1.3458251953125
-0.5546875,-0.226806640625,0.8466796875,3.5552978515625,-0.74005126953125,0.16021728515625,67.4407958984375,50.9918212890625,1.0467529296875
-0.5556640625,-0.214599609375,0.862060546875,-0.9765625,0.19073486328125,-2.22015380859375,66.9921875,51.141357421875,0.299072265625
-0.540283203125,-0.193115234375,0.859619140625,-3.753662109375,1.312255859375,-4.2724609375,68.0389404296875,52.1881103515625,1.3458251953125
-0.550048828125,-0.231689453125,0.8583984375,-5.7525634765625,3.63922119140625,-7.1258544921875,67.1417236328125,51.2908935546875,0.4486083984375
-0.52392578125,-0.220458984375,0.855712890625,-6.90460205078125,6.927490234375,-9.95635986328125,68.0389404296875,52.4871826171875,-0.7476806640625
-0.5615234375,-0.26025390625,0.853759765625,-5.4779052734375,9.2620849609375,-9.5367431640625,68.487548828125,52.337646484375,-1.79443359375
-0.555908203125,-0.29931640625,0.83740234375,-2.73895263671875,7.53021240234375,-7.04193115234375,67.4407958984375,51.5899658203125,-0.4486083984375
-0.55615234375,-0.28466796875,0.837158203125,-1.04522705078125,8.4991455078125,-6.2255859375,68.78662109375,51.4404296875,-0.897216796875
-0.552001953125,-0.287353515625,0.832763671875,3.0517578125,5.28717041015625,-4.06646728515625,67.889404296875,51.141357421875,-0.299072265625
-0.7314453125,-0.20361328125,0.805419921875,6.72149658203125,11.07025146484375,-4.31060791015625,67.291259765625,50.84228515625,-0.59814453125
-0.5263671875,-0.296142578125,0.85546875,5.48553466796875,5.25665283203125,-5.77545166015625,68.3380126953125,52.7862548828125,0.4486083984375
-0.533447265625,-0.206787109375,0.839111328125,8.9874267578125,3.265380859375,-5.79071044921875,67.4407958984375,50.0946044921875,0.1495361328125
-0.547607421875,-0.260009765625,0.86962890625,9.75799560546875,4.11224365234375,-2.57110595703125,68.3380126953125,51.5899658203125,0.1495361328125
-0.5615234375,-0.25537109375,0.854248046875,7.20977783203125,4.20379638671875,-1.6326904296875,68.0389404296875,50.6927490234375,1.0467529296875
-0.552978515625,-0.290771484375,0.828369140625,9.1552734375,5.69915771484375,-0.335693359375,68.3380126953125,51.2908935546875,0.7476806640625
-0.5693359375,-0.271484375,0.8486328125,11.505126953125,2.69317626953125,0.02288818359375,68.78662109375,50.84228515625,1.1962890625
-0.551513671875,-0.281494140625,0.847412109375,11.9476318359375,8.11767578125,1.15203857421875,68.78662109375,51.4404296875,0.59814453125
-0.550048828125,-0.27880859375,0.847412109375,12.85552978515625,9.23919677734375,2.22015380859375,68.3380126953125,51.2908935546875,0.1495361328125
-0.549072265625,-0.2763671875,0.8720703125,12.7105712890625,11.505126953125,2.96783447265625,68.6370849609375,52.4871826171875,1.9439697265625
-0.554443359375,-0.239501953125,0.879150390625,11.66534423828125,17.5018310546875,2.716064453125,68.3380126953125,49.7955322265625,2.8411865234375
-0.5625,-0.170166015625,0.9267578125,2.105712890625,27.74810791015625,3.8604736328125,68.487548828125,50.84228515625,2.093505859375
-0.55615234375,-0.215087890625,1.015625,-12.786865234375,52.154541015625,7.171630859375,67.889404296875,52.337646484375,2.691650390625
-0.620361328125,-0.40283203125,1.16748046875,-13.22174072265625,86.26556396484375,27.28271484375,68.487548828125,52.935791015625,1.1962890625
-0.680419921875,-0.587646484375,1.39013671875,21.14105224609375,120.53680419921875,50.140380859375,67.7398681640625,52.1881103515625,1.3458251953125
-0.696044921875,-0.67431640625,1.328125,49.4537353515625,159.62982177734375,89.33258056640625,66.9921875,52.63671875,0.299072265625
-0.70263671875,-0.77587890625,1.448974609375,40.38238525390625,209.4879150390625,136.11602783203125,65.9454345703125,52.4871826171875,0.1495361328125
2.0,0.308349609375,1.322021484375,-2.64739990234375,170.0592041015625,59.89837646484375,65.9454345703125,53.3843994140625,0.1495361328125
2.0,-0.40380859375,1.20166015625,-20.0042724609375,240.570068359375,27.50396728515625,66.9921875,54.132080078125,-2.093505859375
2.0,-0.876953125,1.160400390625,-2.02178955078125,159.96551513671875,37.7349853515625,65.496826171875,52.935791015625,-3.5888671875
-1.8095703125,-0.4384765625,1.01513671875,18.7835693359375,104.6600341796875,84.8541259765625,65.6463623046875,53.0853271484375,-5.2337646484375
-1.8740234375,-0.27685546875,1.4150390625,-30.914306640625,48.21014404296875,141.265869140625,64.4500732421875,54.5806884765625,-3.4393310546875
-1.80859375,-0.369384765625,0.93115234375,3.9520263671875,38.1927490234375,144.8211669921875,63.4033203125,54.43115234375,-5.084228515625
-1.41845703125,-0.327880859375,0.9267578125,-18.16558837890625,58.81500244140625,123.05450439453125,62.0574951171875,55.4779052734375,-5.5328369140625
-1.236328125,-0.273193359375,0.85888671875,-31.44073486328125,93.16253662109375,88.63067626953125,62.9547119140625,57.5714111328125,-6.1309814453125
-1.2109375,-0.2451171875,0.884765625,-23.59771728515625,81.67266845703125,64.4073486328125,61.4593505859375,56.0760498046875,-7.6263427734375
-0.958740234375,-0.13330078125,0.790283203125,-2.9449462890625,57.4188232421875,18.53179931640625,60.711669921875,56.82373046875,-7.77587890625
-0.792724609375,-0.02587890625,0.68603515625,19.11163330078125,27.88543701171875,-19.56939697265625,62.6556396484375,56.6741943359375,-7.6263427734375
-0.695556640625,0.029052734375,0.51953125,41.0308837890625,5.72967529296875,-41.3665771484375,61.60888671875,57.122802734375,-5.9814453125
-0.546875,0.06005859375,0.428466796875,43.43414306640625,-6.7138671875,-54.52728271484375,61.7584228515625,55.4779052734375,-4.9346923828125
-0.357177734375,0.099365234375,0.383544921875,39.2303466796875,-17.00592041015625,-62.19482421875,62.0574951171875,55.4779052734375,-5.5328369140625
-0.264892578125,0.083251953125,0.2431640625,13.13018798828125,-30.26580810546875,-57.1746826171875,63.2537841796875,56.3751220703125,-4.6356201171875
-0.1552734375,0.04052734375,0.098388671875,2.14385986328125,-40.7562255859375,-49.49951171875,64.00146484375,54.43115234375,-4.78515625
0.027099609375,0.033203125,-0.03564453125,4.180908203125,-44.189453125,-52.032470703125,63.702392578125,54.132080078125,-3.289794921875
0.1064453125,0.093505859375,-0.07666015625,6.23321533203125,-40.35186767578125,-61.63787841796875,63.702392578125,55.029296875,-2.99072265625
0.16455078125,0.08203125,-0.20849609375,11.39068603515625,-35.247802734375,-62.3931884765625,64.7491455078125,54.8797607421875,-1.6448974609375
0.232666015625,0.150390625,-0.22412109375,4.72259521484375,-29.85382080078125,-57.21282958984375,65.496826171875,54.43115234375,-1.495361328125
0.246826171875,0.182373046875,-0.229248046875,-2.7618408203125,-16.876220703125,-51.7120361328125,65.0482177734375,53.6834716796875,-1.0467529296875
0.322509765625,0.271240234375,-0.297607421875,-15.289306640625,-3.77655029296875,-40.97747802734375,64.4500732421875,53.3843994140625,-1.3458251953125
0.38427734375,0.324462890625,-0.282958984375,-12.63427734375,17.37213134765625,-23.53668212890625,65.0482177734375,53.6834716796875,-1.6448974609375
0.304931640625,0.31787109375,-0.24365234375,-7.781982421875,23.12469482421875,-8.15582275390625,65.3472900390625,52.1881103515625,-2.5421142578125
0.269775390625,0.35107421875,-0.212890625,-14.495849609375,39.68048095703125,-0.213623046875,65.6463623046875,52.4871826171875,-3.1402587890625
0.18505859375,0.329833984375,-0.144287109375,-23.193359375,46.51641845703125,6.134033203125,66.39404296875,52.63671875,-3.289794921875
0.137451171875,0.203125,-0.161865234375,-26.611328125,41.29791259765625,20.46966552734375,64.898681640625,52.337646484375,-3.289794921875
0.081298828125,0.2900390625,-0.10107421875,-12.33673095703125,54.656982421875,28.4423828125,64.599609375,53.23486328125,-4.486083984375
0.025146484375,0.324462890625,-0.0556640625,-12.18414306640625,52.00958251953125,40.44342041015625,65.19775390625,52.63671875,-4.486083984375
-0.044921875,0.2412109375,-0.040771484375,-10.90240478515625,45.21942138671875,57.57904052734375,64.599609375,52.63671875,-5.682373046875
-0.171142578125,0.233154296875,-0.002197265625,-4.0435791015625,42.9840087890625,57.38067626953125,64.1510009765625,52.4871826171875,-4.0374755859375
-0.245849609375,0.14404296875,0.06396484375,-5.37872314453125,41.778564453125,49.53765869140625,64.599609375,52.337646484375,-5.682373046875
-0.452392578125,0.174072265625,0.18896484375,-15.5029296875,7.0953369140625,27.54974365234375,65.0482177734375,53.6834716796875,-5.5328369140625
-0.646484375,0.169189453125,0.36328125,-9.02557373046875,-3.44085693359375,13.63372802734375,63.8519287109375,52.7862548828125,-5.8319091796875
-0.742431640625,0.062744140625,0.3818359375,8.14056396484375,-17.38739013671875,16.204833984375,63.104248046875,54.132080078125,-5.9814453125
-0.93212890625,0.241943359375,0.44091796875,8.5601806640625,-26.0467529296875,19.29473876953125,64.00146484375,52.63671875,-7.177734375
-1.08642578125,0.082275390625,0.493408203125,1.82342529296875,-38.73443603515625,29.13665771484375,63.4033203125,53.23486328125,-5.9814453125
-1.175537109375,-0.129638671875,0.545654296875,1.39617919921875,-51.4678955078125,30.90667724609375,63.4033203125,54.730224609375,-6.878662109375
-1.2958984375,-0.05517578125,0.770751953125,16.94488525390625,-61.248779296875,6.81304931640625,62.80517578125,55.926513671875,-7.77587890625
-1.620361328125,-0.22119140625,0.906982421875,30.3192138671875,-76.14898681640625,-6.59942626953125,62.80517578125,55.029296875,-6.878662109375
-1.609619140625,-0.3330078125,0.927978515625,36.88812255859375,-93.04046630859375,-34.3780517578125,62.80517578125,55.62744140625,-5.682373046875
-1.7275390625,-0.512939453125,0.9765625,49.52239990234375,-86.944580078125,-71.54083251953125,64.1510009765625,54.5806884765625,-5.2337646484375
-1.653076171875,-0.46484375,0.989990234375,63.4307861328125,-78.08685302734375,-87.18109130859375,64.1510009765625,55.4779052734375,-5.2337646484375
-1.32421875,-0.161865234375,0.90185546875,32.3486328125,-100.22735595703125,-76.416015625,63.8519287109375,55.4779052734375,-2.5421142578125
-1.2333984375,-0.192626953125,1.074951171875,11.3067626953125,-124.68719482421875,-45.7763671875,64.599609375,55.029296875,-4.18701171875
